trial_id,node_id,timestamp_ms,ax,ay,az,gx,gy,gz,tof_distance_mm,ultrasonic_distance_mm,knob_turns_TD1,knob_turns_TD2
T001,N1,0,-0.0103,0.0109,1.0033,0.1092,-0.4141,0.1551,50.42,216.79,0.0,0.0
T001,N1,100,-0.0057,-0.0002,1.0016,-0.323,0.0323,0.0917,50.38,216.36,0.0,0.0
T001,N1,200,0.0012,-0.0138,0.9984,0.3505,-0.1253,-0.0119,50.41,216.43,0.0,0.0
T001,N1,300,-0.0041,-0.001,1.0044,-0.0756,0.0749,0.0531,50.39,216.58,0.0,0.0
T001,N1,400,-0.0107,0.005,1.0052,-0.2905,-0.2696,0.0873,50.46,216.49,0.0,0.0
T001,N1,500,0.0073,0.0038,0.9984,0.0417,-0.1038,-0.0985,50.38,216.6,0.0,0.0
T001,N1,600,-0.0066,-0.0017,1.0036,0.0623,-0.1799,0.0704,50.44,216.31,0.0,0.0
T001,N1,700,-0.0002,-0.0135,1.002,0.1719,-0.2402,-0.1508,50.37,216.5,0.0,0.0
T001,N1,800,-0.0009,-0.006,1.0013,0.0127,-0.1574,0.0949,50.45,216.63,0.0,0.0
T001,N1,900,-0.0023,0.0034,1.0114,-0.0735,-0.1344,0.148,50.46,216.64,0.0,0.0
T001,N1,1000,0.0085,-0.0036,0.9954,0.1889,0.1659,-0.0653,50.46,216.45,0.0,0.0
T001,N1,1100,-0.0075,-0.0101,0.9941,0.1696,-0.1608,-0.0878,50.48,216.38,0.0,0.0
T001,N1,1200,-0.003,-0.004,0.9956,0.2351,-0.0684,-0.1866,50.43,216.56,0.0,0.0
T001,N1,1300,-0.0018,0.0113,0.9988,0.2207,-0.1692,-0.0851,50.47,216.34,0.0,0.0
T001,N1,1400,0.0159,0.0022,0.9954,0.0066,0.0687,-0.0577,50.49,216.72,0.0,0.0
T001,N1,1500,-0.0016,0.004,1.0078,-0.0767,-0.0739,-0.0253,50.36,216.56,0.0,0.0
T001,N1,1600,0.0072,-0.0116,1.0055,-0.0837,0.2352,0.015,50.38,216.44,0.0,0.0
T001,N1,1700,-0.0025,-0.0149,1.008,0.1487,-0.1412,0.2621,50.33,216.38,0.0,0.0
T001,N1,1800,0.0061,-0.0004,1.0041,-0.3391,0.0708,-0.1544,50.46,216.47,0.0,0.0
T001,N1,1900,-0.0135,-0.0069,1.0051,-0.4666,-0.1038,0.3281,50.32,216.32,0.0,0.0
T001,N1,2000,0.0016,-0.0077,1.0026,0.178,-0.1823,0.0564,50.32,216.61,0.0,0.0
T001,N1,2100,-0.0065,-0.0068,1.0046,0.2295,-0.029,0.1873,50.35,216.43,0.0,0.0
T001,N1,2200,-0.0062,-0.0056,0.9975,-0.252,0.1377,0.1053,50.33,216.59,0.0,0.0
T001,N1,2300,0.0058,0.0037,0.9955,0.0545,-0.1751,-0.0181,50.44,216.62,0.0,0.0
T001,N1,2400,0.0079,-0.0023,1.0127,0.0553,-0.0605,0.3853,50.37,216.69,0.0,0.0
T001,N1,2500,-0.0079,0.0156,0.9946,-0.1318,-0.3401,-0.187,50.33,216.57,0.0,0.0
T001,N1,2600,0.0148,0.0044,0.9929,0.0213,-0.3194,-0.1376,50.41,216.69,0.0,0.0
T001,N1,2700,-0.0032,0.0035,1.0058,-0.3092,-0.1282,0.041,50.41,216.71,0.0,0.0
T001,N1,2800,0.0001,-0.0066,1.0109,-0.2823,-0.1943,-0.0786,50.32,216.54,0.0,0.0
T001,N1,2900,-0.0036,-0.0129,0.9896,-0.1137,-0.1441,-0.1637,50.37,216.54,0.0,0.0
T001,N1,3000,-0.0054,0.0116,1.0112,-0.0458,0.1141,0.3812,50.41,216.41,0.0,0.0
T001,N1,3100,0.0068,-0.0012,1.0037,-0.1441,-0.457,0.0725,50.39,216.35,0.0,0.0
T001,N1,3200,-0.0019,-0.0027,0.9931,0.1742,-0.131,0.0995,50.39,216.68,0.0,0.0
T001,N1,3300,-0.0065,0.003,1.0003,-0.1808,-0.0263,0.2308,50.47,216.59,0.0,0.0
T001,N1,3400,0.0024,0.0069,1.0035,0.0535,-0.3196,0.3286,50.51,216.6,0.0,0.0
T001,N1,3500,0.0072,-0.0014,1.0047,0.1453,-0.0837,0.2401,50.39,216.42,0.0,0.0
T001,N1,3600,-0.0054,-0.0,1.0046,-0.1133,-0.046,0.316,50.34,216.75,0.0,0.0
T001,N1,3700,-0.0029,0.0007,0.9995,0.2732,-0.0834,-0.0423,50.4,216.47,0.0,0.0
T001,N1,3800,-0.0019,-0.008,1.0114,-0.1353,0.1966,0.1747,50.42,216.38,0.0,0.0
T001,N1,3900,0.0118,0.0001,1.0143,-0.2672,-0.1896,0.2661,50.41,216.41,0.0,0.0
T001,N1,4000,-0.0025,0.0194,0.997,-0.02,0.2624,-0.0273,50.44,216.73,0.0,0.0
T001,N1,4100,0.0001,-0.002,1.0037,0.0083,-0.0721,0.0596,50.53,216.32,0.0,0.0
T001,N1,4200,0.0008,0.006,1.0122,-0.1688,-0.0143,0.2884,50.33,216.37,0.0,0.0
T001,N1,4300,0.0064,0.0029,0.9921,-0.2311,0.2492,-0.1557,50.39,216.92,0.0,0.0
T001,N1,4400,0.0048,0.0014,0.9916,-0.0009,0.0278,-0.2108,50.48,216.63,0.0,0.0
T001,N1,4500,-0.0037,0.0117,0.9924,-0.339,0.0641,0.0047,50.38,216.38,0.0,0.0
T001,N1,4600,0.001,-0.0026,0.9999,-0.2087,0.354,-0.0755,50.45,216.33,0.0,0.0
T001,N1,4700,0.0042,0.0021,1.005,0.1364,0.421,0.0223,50.44,216.23,0.0,0.0
T001,N1,4800,-0.0082,0.0013,0.9912,-0.0359,0.1385,-0.1194,50.48,216.5,0.0,0.0
T001,N1,4900,-0.0047,-0.0031,0.996,0.2551,-0.0108,-0.1798,50.51,216.59,0.0,0.0
T001,N1,5000,0.0029,0.0053,1.0063,-0.0296,0.1592,0.2282,50.43,216.71,0.0,0.0
T001,N1,5100,-0.0009,0.0117,0.9935,0.1554,0.0037,-0.228,50.33,216.2,0.0,0.0
T001,N1,5200,0.0043,0.0058,1.0049,-0.0176,0.0155,0.1913,50.38,216.28,0.0,0.0
T001,N1,5300,0.0006,-0.003,0.9878,-0.4616,0.1472,-0.1592,50.52,216.47,0.0,0.0
T001,N1,5400,-0.007,0.0056,1.0055,-0.2184,-0.2739,0.074,50.35,216.92,0.0,0.0
T001,N1,5500,-0.0022,-0.002,0.9977,0.1457,0.0225,-0.071,50.44,216.64,0.0,0.0
T001,N1,5600,-0.0001,-0.0145,0.9898,-0.0057,-0.0126,-0.2998,50.29,216.56,0.0,0.0
T001,N1,5700,-0.0047,0.0055,0.9886,-0.3544,-0.1241,-0.1079,50.35,216.32,0.0,0.0
T001,N1,5800,0.0012,0.0025,0.9925,-0.1334,-0.067,-0.0713,50.46,216.19,0.0,0.0
T001,N1,5900,0.001,0.0041,0.9945,-0.1293,-0.2138,0.0489,50.42,216.51,0.0,0.0
T001,N1,6000,-0.0023,0.0075,1.0015,-0.016,0.3747,-0.172,50.39,216.47,0.0,0.0
T001,N1,6100,0.0075,0.005,0.9967,-0.0505,0.1879,-0.193,50.37,216.45,0.0,0.0
T001,N1,6200,0.0036,-0.0017,1.0113,0.0821,0.159,0.0688,50.31,216.43,0.0,0.0
T001,N1,6300,-0.0019,-0.0019,0.9933,0.1983,-0.0825,0.1311,50.45,216.37,0.0,0.0
T001,N1,6400,0.0073,-0.0055,1.0065,-0.0425,0.0123,0.1441,50.39,216.33,0.0,0.0
T001,N1,6500,0.0054,-0.0134,1.0165,0.036,0.189,0.1662,50.34,216.69,0.0,0.0
T001,N1,6600,0.0201,0.0118,1.01,-0.0479,0.1259,0.109,50.41,216.35,0.0,0.0
T001,N1,6700,0.0056,-0.0027,0.9849,0.4617,0.1241,-0.3615,50.43,216.45,0.0,0.0
T001,N1,6800,-0.0003,-0.0016,0.9922,-0.1764,-0.2789,-0.2061,50.38,216.47,0.0,0.0
T001,N1,6900,0.0023,0.0009,0.9885,0.0527,-0.2987,-0.0957,50.4,216.6,0.0,0.0
T001,N1,7000,-0.0018,0.0051,0.9943,0.1458,-0.1949,-0.0278,50.4,216.37,0.0,0.0
T001,N1,7100,0.0032,-0.0029,0.9994,0.2654,0.3401,-0.0395,50.35,216.65,0.0,0.0
T001,N1,7200,0.0047,0.0027,1.0051,0.0853,0.4064,0.1844,50.39,216.42,0.0,0.0
T001,N1,7300,-0.0067,0.0068,0.9964,0.2815,-0.4029,-0.0372,50.43,216.46,0.0,0.0
T001,N1,7400,0.0,0.0026,1.0023,-0.4207,0.438,-0.0598,50.44,216.72,0.0,0.0
T001,N1,7500,-0.0019,-0.0053,0.9889,0.0496,-0.1103,-0.1704,50.43,216.33,0.0,0.0
T001,N1,7600,0.0031,0.0075,1.01,-0.0447,0.0851,0.172,50.37,216.59,0.0,0.0
T001,N1,7700,0.0005,-0.0105,1.008,0.3951,0.2775,0.1323,50.44,216.62,0.0,0.0
T001,N1,7800,0.0002,0.0015,0.993,-0.3125,0.3171,-0.2487,50.44,216.51,0.0,0.0
T001,N1,7900,0.0117,-0.0037,0.9941,-0.0053,0.0089,-0.0274,50.38,216.44,0.0,0.0
T001,N1,8000,-0.0063,-0.0036,0.9991,-0.0685,-0.251,0.1033,50.39,216.78,0.0,0.0
T001,N1,8100,0.0114,0.0007,1.004,0.2001,-0.0997,0.2054,50.45,216.47,0.0,0.0
T001,N1,8200,-0.0184,0.001,0.9989,0.0485,0.1205,-0.1044,50.48,216.49,0.0,0.0
T001,N1,8300,-0.0047,0.0097,1.0004,0.3285,-0.0191,-0.0937,50.32,216.39,0.0,0.0
T001,N1,8400,-0.0018,-0.0049,0.9875,-0.2424,0.1204,-0.2509,50.49,216.47,0.0,0.0
T001,N1,8500,-0.0077,0.009,0.9846,0.09,-0.1278,-0.2241,50.46,216.61,0.0,0.0
T001,N1,8600,-0.0062,0.0029,1.0132,0.0438,-0.0807,0.2189,50.41,216.42,0.0,0.0
T001,N1,8700,0.0056,-0.0004,1.0062,0.0192,-0.2484,0.217,50.39,216.13,0.0,0.0
T001,N1,8800,0.0001,0.0013,0.9924,0.1356,-0.1691,-0.2756,50.42,216.52,0.0,0.0
T001,N1,8900,0.0072,-0.0058,0.9892,0.1289,0.1635,-0.0837,50.37,216.29,0.0,0.0
T001,N1,9000,0.0023,0.0046,0.9953,-0.2152,-0.1357,-0.1336,50.39,216.56,0.0,0.0
T001,N1,9100,0.0073,-0.0114,1.0067,0.0532,0.0538,0.0601,50.32,216.46,0.0,0.0
T001,N1,9200,0.0041,0.0018,0.9952,0.3064,-0.2944,0.1178,50.31,216.61,0.0,0.0
T001,N1,9300,-0.0043,0.0075,1.0148,0.3619,-0.1376,0.1076,50.52,216.33,0.0,0.0
T001,N1,9400,0.0103,0.0043,1.0115,-0.5067,0.2085,0.3427,50.4,216.37,0.0,0.0
T001,N1,9500,0.0026,0.0026,1.0025,0.005,-0.1729,-0.043,50.41,216.39,0.0,0.0
T001,N1,9600,-0.0042,-0.0079,0.9964,0.2039,0.0845,-0.0454,50.4,216.22,0.0,0.0
T001,N1,9700,0.0002,-0.0012,1.0061,-0.0737,0.6447,0.1214,50.36,216.6,0.0,0.0
T001,N1,9800,0.0012,0.004,0.9955,-0.142,0.0581,-0.0024,50.38,216.19,0.0,0.0
T001,N1,9900,-0.0006,0.0057,1.0067,-0.0722,-0.0055,0.0812,50.4,216.6,0.0,0.0
T001,N1,10000,-0.0129,-0.0052,1.0042,0.053,0.2346,0.1527,50.39,216.48,0.0,0.0
T001,N1,10100,0.009,0.0039,0.9995,0.0113,-0.3311,0.0671,50.36,216.4,0.0,0.0
T001,N1,10200,0.0057,-0.0003,0.9948,0.3052,-0.3072,0.0011,50.42,216.48,0.0,0.0
T001,N1,10300,-0.0031,0.0057,1.0002,-0.1069,0.0645,0.0674,50.41,216.48,0.0,0.0
T001,N1,10400,-0.0107,-0.0033,0.9959,0.0353,0.2236,-0.2809,50.42,216.38,0.0,0.0
T001,N1,10500,-0.0052,0.0005,1.0016,0.1591,0.0676,0.0509,50.44,216.48,0.0,0.0
T001,N1,10600,-0.006,-0.013,1.0017,-0.2752,-0.2392,-0.1496,50.39,216.55,0.0,0.0
T001,N1,10700,0.0015,0.0092,1.0063,-0.0102,-0.0598,0.0109,50.4,216.3,0.0,0.0
T001,N1,10800,-0.0109,-0.0065,1.0011,-0.2999,-0.1251,0.1783,50.47,216.51,0.0,0.0
T001,N1,10900,0.0037,-0.0017,0.9948,0.3622,-0.1703,-0.1475,50.35,216.05,0.0,0.0
T001,N1,11000,0.0013,-0.0024,1.0067,-0.1806,-0.1103,0.2883,50.3,216.17,0.0,0.0
T001,N1,11100,-0.0084,-0.0011,0.9861,-0.3674,-0.0305,-0.4652,50.42,216.54,0.0,0.0
T001,N1,11200,0.0003,-0.002,0.9922,-0.0677,0.0191,-0.2307,50.36,216.42,0.0,0.0
T001,N1,11300,0.0014,-0.0051,0.991,0.0743,0.0382,-0.1949,50.34,216.34,0.0,0.0
T001,N1,11400,-0.0003,-0.0085,1.0069,0.1288,-0.1747,0.0241,50.43,216.47,0.0,0.0
T001,N1,11500,-0.007,-0.0039,1.0003,0.5163,0.1832,-0.0032,50.38,216.42,0.0,0.0
T001,N1,11600,0.0012,-0.0001,0.9959,0.2834,0.3726,-0.0419,50.31,216.34,0.0,0.0
T001,N1,11700,-0.0136,-0.0046,0.9934,0.038,0.0332,-0.0843,50.48,216.24,0.0,0.0
T001,N1,11800,0.0059,-0.0051,1.0028,-0.1457,-0.0152,0.0446,50.3,216.18,0.0,0.0
T001,N1,11900,-0.0007,-0.0065,0.9985,0.4759,0.0544,-0.0154,50.38,216.56,0.0,0.0
T001,N1,12000,0.002,0.0059,1.006,-0.0491,-0.1624,0.2896,50.29,216.41,0.0,0.0
T001,N1,12100,-0.0046,0.002,1.004,-0.1699,0.0574,0.2126,50.4,216.62,0.0,0.0
T001,N1,12200,0.0015,-0.0048,0.9946,-0.266,-0.1243,-0.2062,50.36,216.38,0.0,0.0
T001,N1,12300,-0.0039,-0.0063,0.9914,-0.3688,0.4156,-0.2466,50.43,216.5,0.0,0.0
T001,N1,12400,-0.0101,-0.009,1.0015,-0.1304,0.193,0.0178,50.39,216.43,0.0,0.0
T001,N1,12500,0.0024,-0.0055,0.9961,-0.0528,0.2616,0.1158,50.46,216.45,0.0,0.0
T001,N1,12600,-0.008,-0.0011,1.0033,0.076,0.1472,0.1169,50.37,216.45,0.0,0.0
T001,N1,12700,0.0071,-0.0099,1.0058,-0.0347,0.0352,-0.0637,50.32,216.37,0.0,0.0
T001,N1,12800,-0.0097,-0.0063,1.0056,-0.285,-0.1723,-0.1092,50.4,216.26,0.0,0.0
T001,N1,12900,0.0142,0.0027,1.0016,-0.3801,0.3244,-0.0878,50.37,216.56,0.0,0.0
T001,N1,13000,-0.0104,-0.0084,1.004,0.099,0.2586,0.0385,50.29,216.7,0.0,0.0
T001,N1,13100,-0.0033,-0.0051,0.997,0.15,-0.4942,0.0045,50.33,216.72,0.0,0.0
T001,N1,13200,0.0006,0.007,1.0015,-0.2105,0.2047,0.0679,50.35,216.39,0.0,0.0
T001,N1,13300,0.0094,0.0007,0.9982,-0.0598,0.053,-0.0314,50.47,216.35,0.0,0.0
T001,N1,13400,0.005,-0.002,1.0166,-0.1206,0.2483,0.4775,50.43,216.37,0.0,0.0
T001,N1,13500,0.0021,-0.0009,1.0057,0.1028,0.0233,0.1402,50.38,216.43,0.0,0.0
T001,N1,13600,0.0108,0.001,0.9933,-0.1993,0.0055,-0.1848,50.42,216.45,0.0,0.0
T001,N1,13700,0.0032,-0.0116,1.0048,0.1295,0.2495,0.1274,50.3,216.32,0.0,0.0
T001,N1,13800,-0.0081,0.0032,0.9974,0.0946,-0.2547,-0.2431,50.37,216.25,0.0,0.0
T001,N1,13900,-0.0006,-0.0048,1.0112,-0.2213,-0.1541,0.2225,50.42,216.49,0.0,0.0
T001,N1,14000,0.0138,0.0014,0.9996,0.0008,0.0425,0.0214,50.4,215.95,0.0,0.0
T001,N1,14100,-0.008,-0.0007,0.9928,-0.0031,-0.4203,0.0207,50.36,216.47,0.0,0.0
T001,N1,14200,-0.0033,0.004,1.0008,-0.3145,0.2141,-0.2361,50.39,216.36,0.0,0.0
T001,N1,14300,-0.0026,-0.0077,1.0033,0.229,-0.1672,0.0585,50.41,216.61,0.0,0.0
T001,N1,14400,0.0142,0.001,1.0103,-0.0209,0.2563,0.2155,50.39,216.65,0.0,0.0
T001,N1,14500,-0.0065,0.0012,0.9964,0.1113,0.1434,-0.0655,50.44,216.68,0.0,0.0
T001,N1,14600,0.0039,0.0038,0.9969,-0.2538,0.1512,0.1308,50.41,216.45,0.0,0.0
T001,N1,14700,-0.0054,-0.0077,0.9889,0.0458,-0.1847,-0.0896,50.41,216.34,0.0,0.0
T001,N1,14800,0.0029,0.0135,1.0128,0.3722,-0.2128,0.1574,50.46,216.4,0.0,0.0
T001,N1,14900,-0.0121,0.0111,1.0065,0.5403,0.1848,0.1799,50.42,216.55,0.0,0.0
T001,N1,15000,-0.0118,-0.0029,1.0048,0.1542,0.0891,0.1113,50.46,216.27,0.0,0.0
T001,N1,15100,0.006,-0.0112,1.0033,-0.1018,0.055,0.088,50.34,216.72,0.0,0.0
T001,N1,15200,-0.0165,-0.0032,1.0101,0.1362,-0.2208,0.216,50.3,216.46,0.0,0.0
T001,N1,15300,-0.0036,-0.0,1.0081,0.0105,-0.115,0.1022,50.37,216.58,0.0,0.0
T001,N1,15400,0.0082,0.0042,1.0008,0.0419,-0.0319,0.1411,50.36,216.26,0.0,0.0
T001,N1,15500,0.0109,0.0044,1.0065,-0.1577,-0.1961,0.128,50.44,216.38,0.0,0.0
T001,N1,15600,-0.0066,-0.0031,0.9956,-0.2149,-0.0841,-0.0743,50.32,216.23,0.0,0.0
T001,N1,15700,-0.0013,-0.0018,1.001,0.0335,-0.0984,0.1523,50.38,216.67,0.0,0.0
T001,N1,15800,0.0082,-0.0034,1.0024,0.2866,-0.0395,0.3533,50.4,216.49,0.0,0.0
T001,N1,15900,0.001,-0.0062,1.0067,0.0717,0.0598,0.1417,50.38,216.58,0.0,0.0
T001,N1,16000,-0.0108,0.009,1.0052,0.0618,-0.0097,0.0302,50.37,216.5,0.0,0.0
T001,N1,16100,-0.013,0.0025,1.0055,-0.207,0.351,0.249,50.4,216.57,0.0,0.0
T001,N1,16200,-0.0012,-0.0039,1.0026,-0.0883,0.0221,0.1124,50.43,216.45,0.0,0.0
T001,N1,16300,-0.007,0.0037,1.001,0.0559,0.3512,-0.1059,50.46,216.48,0.0,0.0
T001,N1,16400,-0.0001,0.0086,1.0022,-0.1595,-0.0647,0.1923,50.38,216.5,0.0,0.0
T001,N1,16500,-0.0034,0.0048,0.9974,0.0963,-0.2906,-0.1756,50.33,216.57,0.0,0.0
T001,N1,16600,-0.0025,0.0023,0.9926,0.1828,0.0246,0.0641,50.45,216.56,0.0,0.0
T001,N1,16700,0.0001,-0.0026,0.9958,-0.0246,0.3297,-0.0052,50.32,216.92,0.0,0.0
T001,N1,16800,-0.0047,0.0081,1.0049,-0.0385,0.1104,0.103,50.47,216.75,0.0,0.0
T001,N1,16900,-0.007,-0.0083,1.0035,0.139,0.1236,0.0458,50.45,216.23,0.0,0.0
T001,N1,17000,0.0062,-0.0018,1.0086,-0.1,-0.3987,0.1327,50.45,216.48,0.0,0.0
T001,N1,17100,0.006,0.0019,0.9957,-0.0331,0.1123,-0.1597,50.42,216.45,0.0,0.0
T001,N1,17200,0.0037,-0.0051,1.0026,0.0571,0.0393,0.1734,50.28,216.7,0.0,0.0
T001,N1,17300,-0.0071,0.0003,1.0026,-0.0007,-0.3378,0.1056,50.34,216.46,0.0,0.0
T001,N1,17400,-0.0023,0.004,0.9993,0.0588,0.0601,0.0401,50.41,216.57,0.0,0.0
T001,N1,17500,-0.0015,0.0119,1.0104,-0.1456,0.0055,0.1885,50.36,216.14,0.0,0.0
T001,N1,17600,-0.0054,0.0033,0.9965,-0.1502,0.1586,0.0007,50.38,216.28,0.0,0.0
T001,N1,17700,-0.0104,0.0115,0.9879,0.082,0.2904,-0.1258,50.43,216.81,0.0,0.0
T001,N1,17800,0.0085,-0.0025,0.9989,-0.0401,0.1701,-0.1278,50.4,216.49,0.0,0.0
T001,N1,17900,0.0095,0.0072,0.99,-0.3329,-0.2315,-0.0159,50.34,216.35,0.0,0.0
T001,N1,18000,0.0051,-0.002,0.9855,0.0325,-0.0515,0.0351,50.45,216.52,0.0,0.0
T001,N1,18100,0.0025,0.0096,1.0126,0.1357,-0.527,0.1985,50.43,216.33,0.0,0.0
T001,N1,18200,0.0073,-0.0029,1.0018,-0.1774,0.1536,0.2088,50.38,216.45,0.0,0.0
T001,N1,18300,0.0042,0.0034,1.0039,0.0471,0.0237,0.0025,50.43,216.27,0.0,0.0
T001,N1,18400,0.0022,0.0037,0.9988,-0.2975,-0.4158,-0.076,50.4,216.35,0.0,0.0
T001,N1,18500,-0.0154,0.0036,1.0053,0.381,-0.137,-0.0418,50.45,216.41,0.0,0.0
T001,N1,18600,0.0005,-0.0112,1.0055,0.0561,-0.1324,0.2153,50.39,216.65,0.0,0.0
T001,N1,18700,0.0088,-0.0011,1.0054,-0.3036,-0.1268,0.1566,50.45,216.56,0.0,0.0
T001,N1,18800,0.0014,0.0161,0.9954,-0.0721,0.2278,-0.1328,50.29,216.57,0.0,0.0
T001,N1,18900,-0.0008,-0.0032,0.9976,-0.142,-0.0335,0.0515,50.41,216.49,0.0,0.0
T001,N1,19000,0.0001,0.0058,1.0115,-0.1684,0.0925,0.3812,50.37,216.6,0.0,0.0
T001,N1,19100,0.0082,-0.0068,1.03,-0.2823,0.5729,0.6741,50.35,216.34,0.0,0.0
T001,N1,19200,-0.0057,-0.0067,0.982,-0.0623,0.5458,-0.4051,50.45,216.37,0.0,0.0
T001,N1,19300,0.0077,0.0101,1.0176,-0.1988,-0.2941,0.5712,50.43,216.54,0.0,0.0
T001,N1,19400,-0.0142,0.0213,0.9989,-0.5422,0.3,-0.0715,50.28,216.44,0.0,0.0
T001,N1,19500,0.0025,-0.0125,1.0119,0.2292,0.3007,0.2485,50.42,216.47,0.0,0.0
T001,N1,19600,0.0083,-0.0013,1.0023,-0.0713,0.1941,0.3081,50.42,216.46,0.0,0.0
T001,N1,19700,-0.0029,-0.0004,0.9959,-0.0204,-0.0326,-0.1056,50.35,216.68,0.0,0.0
T001,N1,19800,-0.0094,0.0041,1.0127,-0.3544,-0.2403,0.2284,50.35,216.67,0.0,0.0
T001,N1,19900,-0.0061,0.0051,1.0017,0.1734,-0.2101,0.0205,50.32,216.39,0.0,0.0
T001,N1,20000,0.0035,-0.0088,0.9926,-0.0957,-0.1723,-0.1224,50.38,216.22,0.0,0.0
T001,N1,20100,0.005,-0.0018,1.0107,0.0058,-0.1963,0.2648,50.39,216.39,0.0,0.0
T001,N1,20200,-0.0016,-0.0026,1.0035,-0.1579,0.0262,0.3225,50.44,216.37,0.0,0.0
T001,N1,20300,0.0073,0.0078,1.0093,-0.0022,0.1845,0.1982,50.41,216.65,0.0,0.0
T001,N1,20400,-0.0033,-0.0035,0.9982,-0.2971,-0.0927,0.0504,50.34,216.66,0.0,0.0
T001,N1,20500,-0.0038,-0.0035,1.0021,-0.1139,-0.0564,0.3205,50.41,216.37,0.0,0.0
T001,N1,20600,0.0006,-0.0076,0.991,-0.1024,-0.0458,-0.2156,50.38,216.42,0.0,0.0
T001,N1,20700,0.0119,-0.0026,0.9974,-0.1447,-0.185,-0.1824,50.35,216.31,0.0,0.0
T001,N1,20800,-0.0057,-0.0104,1.0114,-0.1566,-0.0125,0.3476,50.31,216.56,0.0,0.0
T001,N1,20900,0.0006,0.0109,1.0001,-0.1427,0.0118,0.0199,50.42,216.5,0.0,0.0
T001,N1,21000,0.0074,-0.0004,1.004,0.1588,0.0042,0.1917,50.42,216.63,0.0,0.0
T001,N1,21100,0.0033,-0.0009,1.008,-0.1878,0.0335,-0.0345,50.43,216.58,0.0,0.0
T001,N1,21200,-0.0102,0.008,0.9946,0.1843,0.122,-0.07,50.36,216.6,0.0,0.0
T001,N1,21300,-0.0,-0.001,1.0046,-0.1618,0.1509,-0.0614,50.41,216.27,0.0,0.0
T001,N1,21400,-0.0021,-0.0031,0.9974,-0.0876,-0.0828,-0.0139,50.34,216.41,0.0,0.0
T001,N1,21500,-0.0114,-0.0015,0.9955,0.0869,0.098,-0.1969,50.36,216.64,0.0,0.0
T001,N1,21600,-0.0055,-0.0039,0.9986,-0.1365,-0.1116,-0.0292,50.41,216.42,0.0,0.0
T001,N1,21700,0.0,0.0086,0.987,-0.4115,0.0489,-0.2622,50.42,216.26,0.0,0.0
T001,N1,21800,-0.0097,0.0179,0.9901,0.401,0.0807,-0.355,50.33,216.63,0.0,0.0
T001,N1,21900,0.0022,-0.0065,0.9987,0.0607,-0.0335,-0.1064,50.36,216.44,0.0,0.0
T001,N1,22000,-0.0053,0.0035,1.0046,-0.2095,0.2225,0.0947,50.39,216.68,0.0,0.0
T001,N1,22100,0.0006,-0.0097,0.9998,-0.2117,-0.0815,0.0669,50.45,216.53,0.0,0.0
T001,N1,22200,-0.003,0.0011,1.0179,0.0092,0.4114,0.2078,50.36,216.49,0.0,0.0
T001,N1,22300,0.0065,0.0092,1.004,-0.0201,0.0292,0.0445,50.4,216.73,0.0,0.0
T001,N1,22400,-0.0142,-0.0084,1.0076,0.4834,0.0149,0.0661,50.41,216.33,0.0,0.0
T001,N1,22500,-0.0091,-0.0045,1.002,0.2645,-0.2176,0.0523,50.39,216.74,0.0,0.0
T001,N1,22600,-0.0026,-0.0087,1.0013,0.0026,-0.1838,-0.0176,50.43,216.43,0.0,0.0
T001,N1,22700,-0.0023,0.001,0.9957,-0.2551,-0.3469,-0.1263,50.34,216.56,0.0,0.0
T001,N1,22800,0.0028,-0.0121,1.0012,0.0985,0.1562,-0.0305,50.38,216.55,0.0,0.0
T001,N1,22900,-0.0006,-0.0021,1.0039,-0.2462,0.5177,0.2226,50.49,216.46,0.0,0.0
T001,N1,23000,-0.0005,0.0028,0.9972,0.3549,-0.2662,-0.0935,50.5,216.39,0.0,0.0
T001,N1,23100,0.0007,-0.0074,0.992,0.1499,-0.2648,-0.0806,50.46,216.45,0.0,0.0
T001,N1,23200,0.0063,0.0047,0.9997,-0.3177,0.0089,0.1328,50.48,216.35,0.0,0.0
T001,N1,23300,-0.0063,0.003,1.0072,0.1907,0.1564,-0.0127,50.34,216.82,0.0,0.0
T001,N1,23400,0.0033,0.0003,1.0028,0.3856,0.2016,-0.1715,50.39,216.46,0.0,0.0
T001,N1,23500,0.0128,0.0075,1.0022,-0.0355,0.0265,0.0158,50.42,216.7,0.0,0.0
T001,N1,23600,0.0017,-0.0038,0.9892,0.124,-0.1389,-0.0123,50.56,216.68,0.0,0.0
T001,N1,23700,0.0096,0.0217,0.9957,0.0421,-0.0139,-0.0792,50.42,216.58,0.0,0.0
T001,N1,23800,0.0013,-0.003,0.9987,0.1131,-0.5275,-0.0817,50.47,216.51,0.0,0.0
T001,N1,23900,0.0058,-0.0031,0.997,-0.3463,-0.1671,0.0342,50.46,216.55,0.0,0.0
T001,N1,24000,-0.0108,-0.0062,0.9903,-0.006,0.0532,-0.2856,50.46,216.61,0.0,0.0
T001,N1,24100,0.0049,0.0168,0.9962,-0.037,0.1786,-0.0529,50.44,216.56,0.0,0.0
T001,N1,24200,-0.0137,0.0049,0.9987,0.1556,0.1888,-0.2386,50.38,216.3,0.0,0.0
T001,N1,24300,0.0045,-0.003,0.9972,-0.334,-0.2464,-0.0437,50.3,216.27,0.0,0.0
T001,N1,24400,0.0044,0.0048,1.0004,0.1339,-0.4408,-0.0043,50.51,216.74,0.0,0.0
T001,N1,24500,-0.0055,-0.0032,0.9928,0.0607,-0.2042,-0.0731,50.42,216.13,0.0,0.0
T001,N1,24600,0.0054,-0.0155,0.9989,-0.0459,0.2174,-0.1678,50.35,216.56,0.0,0.0
T001,N1,24700,0.0032,-0.0004,1.0049,-0.0365,0.2923,0.0516,50.47,216.49,0.0,0.0
T001,N1,24800,-0.0002,0.0026,1.0028,-0.1212,0.4221,-0.0169,50.48,216.54,0.0,0.0
T001,N1,24900,0.0045,0.0056,1.0056,-0.2641,-0.0121,0.0654,50.49,216.35,0.0,0.0
T001,N1,25000,-0.0042,-0.0061,1.0049,-0.4712,-0.2018,0.1986,50.51,216.58,0.0,0.0
T001,N1,25100,0.0048,0.007,0.9978,-0.2511,0.0422,-0.1444,50.41,216.56,0.0,0.0
T001,N1,25200,-0.0129,0.0066,1.0008,-0.045,0.0898,-0.1451,50.41,216.94,0.0,0.0
T001,N1,25300,-0.0078,-0.0052,0.986,-0.077,0.3272,-0.2903,50.43,216.56,0.0,0.0
T001,N1,25400,-0.0129,0.0101,1.0085,-0.1917,0.0692,0.0579,50.5,216.74,0.0,0.0
T001,N1,25500,-0.0081,-0.0009,0.9989,0.1241,0.0741,-0.1245,50.35,216.34,0.0,0.0
T001,N1,25600,0.013,0.0005,0.9977,-0.1548,-0.2294,0.0099,50.46,216.73,0.0,0.0
T001,N1,25700,0.0115,-0.0015,1.004,0.0256,0.2809,-0.058,50.5,216.62,0.0,0.0
T001,N1,25800,-0.0112,-0.0013,0.9867,0.0112,0.2717,-0.1679,50.5,216.61,0.0,0.0
T001,N1,25900,-0.0101,0.0064,0.9963,-0.0895,-0.1087,-0.0034,50.48,216.63,0.0,0.0
T001,N1,26000,-0.0055,-0.0082,0.9924,-0.1177,-0.3317,-0.0796,50.5,216.85,0.0,0.0
T001,N1,26100,0.0037,0.0077,0.9749,0.1208,0.3677,-0.2923,50.32,216.61,0.0,0.0
T001,N1,26200,-0.0118,-0.0044,0.999,0.0534,-0.3648,-0.1056,50.54,216.44,0.0,0.0
T001,N1,26300,0.0027,0.0037,1.0051,0.0831,0.3482,0.0475,50.48,216.47,0.0,0.0
T001,N1,26400,-0.0022,-0.0032,1.0123,-0.0983,-0.4722,0.068,50.54,216.68,0.0,0.0
T001,N1,26500,-0.0043,-0.0021,0.9982,-0.4185,0.1174,-0.0166,50.42,216.62,0.0,0.0
T001,N1,26600,0.0112,-0.0028,1.0062,0.0169,0.0307,0.0645,50.39,216.33,0.0,0.0
T001,N1,26700,0.0069,-0.001,0.9943,-0.0101,0.007,0.0437,50.57,216.63,0.0,0.0
T001,N1,26800,-0.0041,0.0019,1.0012,-0.1,-0.4492,0.157,50.44,216.39,0.0,0.0
T001,N1,26900,-0.0059,0.0107,0.9897,-0.22,0.0726,-0.3972,50.47,216.61,0.0,0.0
T001,N1,27000,-0.0064,0.0165,0.9983,-0.127,-0.0305,0.0041,50.51,216.43,0.0,0.0
T001,N1,27100,-0.0079,0.0073,1.0011,0.2002,0.0748,-0.1406,50.52,216.49,0.0,0.0
T001,N1,27200,0.0002,0.0008,0.9988,0.3228,-0.1548,-0.0724,50.54,216.44,0.0,0.0
T001,N1,27300,0.0,-0.0066,1.0015,-0.1909,0.1076,-0.0214,50.5,216.74,0.0,0.0
T001,N1,27400,0.0053,0.0084,0.9995,-0.0955,-0.2072,-0.0249,50.43,216.57,0.0,0.0
T001,N1,27500,-0.0139,-0.006,1.0165,-0.1913,0.41,0.3788,50.52,216.7,0.0,0.0
T001,N1,27600,0.0068,-0.0046,1.0003,0.332,-0.0694,0.1429,50.53,216.95,0.0,0.0
T001,N1,27700,-0.0082,-0.0057,0.9939,0.0416,-0.0177,-0.1192,50.4,216.52,0.0,0.0
T001,N1,27800,0.0004,-0.016,0.9886,0.1245,-0.0607,-0.2189,50.57,216.74,0.0,0.0
T001,N1,27900,0.0009,-0.0038,1.0043,0.0995,0.3921,0.0438,50.37,216.41,0.0,0.0
T001,N1,28000,-0.0043,0.0043,0.9919,-0.0988,-0.2683,-0.2964,50.54,216.72,0.0,0.0
T001,N1,28100,0.0084,-0.0119,0.9878,0.0955,0.1308,-0.1788,50.46,216.41,0.0,0.0
T001,N1,28200,0.0008,0.0145,1.0017,-0.2154,-0.1329,0.1726,50.52,216.5,0.0,0.0
T001,N1,28300,0.0059,-0.0041,0.9901,-0.0289,-0.2173,-0.2738,50.52,216.59,0.0,0.0
T001,N1,28400,-0.0048,-0.0001,0.9973,-0.0335,0.0134,-0.1875,50.49,216.61,0.0,0.0
T001,N1,28500,-0.0016,-0.0118,1.0002,0.2424,-0.1109,-0.0209,50.52,216.31,0.0,0.0
T001,N1,28600,0.0012,-0.0037,0.9991,-0.2014,-0.1067,0.1419,50.49,216.37,0.0,0.0
T001,N1,28700,0.0053,0.0026,1.0107,0.0806,0.1144,0.0945,50.53,216.58,0.0,0.0
T001,N1,28800,-0.0037,-0.0026,0.9912,-0.0063,0.4574,-0.1657,50.61,216.43,0.0,0.0
T001,N1,28900,-0.019,-0.0133,0.9643,-0.9629,0.3259,-0.8216,50.43,216.29,0.016,0.0
T001,N1,29000,-0.0541,-0.0644,0.8985,0.8106,-1.9131,-2.0629,50.34,216.49,0.04,0.0
T001,N1,29100,-0.0427,0.0248,0.9375,-0.9644,-0.9565,-1.2308,50.48,216.47,0.065,0.0
T001,N1,29200,-0.048,0.0615,0.9787,0.8862,-0.3744,-0.536,50.48,216.53,0.089,0.0
T001,N1,29300,0.0103,0.0221,1.0168,0.3196,-0.371,0.5154,50.48,216.57,0.113,0.0
T001,N1,29400,-0.0463,-0.0082,0.9561,-0.553,-0.0051,-0.8845,50.46,216.56,0.138,0.0
T001,N1,29500,0.0694,-0.0364,0.9721,-0.0995,0.3857,-0.4446,50.54,216.37,0.162,0.0
T001,N1,29600,-0.0237,-0.0338,1.0318,-0.2502,1.2252,0.5821,50.44,216.43,0.187,0.0
T001,N1,29700,0.0511,-0.0113,0.9757,0.2526,-0.0939,-0.5166,50.52,216.62,0.211,0.0
T001,N1,29800,-0.0434,-0.0103,0.9962,1.0461,-0.6124,-0.1384,50.53,216.42,0.235,0.0
T001,N1,29900,-0.0125,0.003,1.0077,-0.0491,0.6957,0.2781,50.52,216.44,0.26,0.0
T001,N1,30000,0.0055,-0.008,0.9852,0.2725,0.6754,-0.3234,50.52,216.28,0.284,0.0
T001,N1,30100,0.0043,-0.0038,1.0144,0.0005,0.0038,0.2468,50.54,216.5,0.309,0.0
T001,N1,30200,0.0094,-0.0174,0.9864,0.1471,-0.4068,-0.4083,50.49,216.56,0.333,0.0
T001,N1,30300,-0.0103,-0.0172,1.0086,0.0676,0.2557,0.1233,50.47,216.22,0.357,0.0
T001,N1,30400,0.0058,0.0164,1.0047,-0.1535,-0.1561,0.1081,50.52,216.33,0.382,0.0
T001,N1,30500,0.0003,0.0123,1.0074,-0.2901,-0.5429,0.1741,50.52,216.29,0.406,0.0
T001,N1,30600,-0.0006,0.0135,0.9996,-0.0346,0.2485,-0.0475,50.53,216.63,0.431,0.0
T001,N1,30700,-0.0058,-0.0104,1.0019,-0.2078,0.3372,0.1313,50.4,216.23,0.455,0.0
T001,N1,30800,0.0154,0.0032,1.0118,0.2359,0.5147,0.2243,50.48,216.5,0.479,0.0
T001,N1,30900,-0.0184,-0.0012,0.9991,0.0829,-0.0379,0.0299,50.43,216.6,0.504,0.0
T001,N1,31000,-0.0037,0.0139,0.9959,-0.0213,0.2219,-0.1799,50.52,216.5,0.528,0.0
T001,N1,31100,-0.0005,0.0008,0.9884,0.3305,0.1865,-0.3542,50.52,216.39,0.553,0.0
T001,N1,31200,-0.0046,0.0018,1.0004,-0.3677,0.1625,-0.2144,50.47,216.52,0.577,0.0
T001,N1,31300,-0.0098,0.0016,1.0032,0.3789,0.0166,0.1641,50.45,216.63,0.602,0.0
T001,N1,31400,-0.0019,-0.0072,1.0016,-0.0805,-0.1222,-0.1188,50.51,216.46,0.626,0.0
T001,N1,31500,-0.0024,-0.0067,0.9861,0.0923,0.2863,-0.175,50.48,216.13,0.65,0.0
T001,N1,31600,-0.0077,-0.0062,0.9894,-0.0565,0.1396,-0.3071,50.56,216.63,0.675,0.0
T001,N1,31700,0.0023,0.0036,1.0157,-0.0504,0.3425,0.1638,50.58,216.54,0.699,0.0
T001,N1,31800,-0.0029,-0.0013,1.0009,0.3387,-0.1912,-0.0749,50.55,216.46,0.724,0.0
T001,N1,31900,-0.0003,0.0068,1.0049,0.3228,0.0654,0.1688,50.51,216.19,0.748,0.0
T001,N1,32000,0.0035,-0.0024,1.0001,0.0592,-0.3206,0.005,50.59,216.46,0.772,0.0
T001,N1,32100,-0.0113,-0.0075,0.9911,0.0778,-0.1429,-0.0596,50.51,216.39,0.797,0.0
T001,N1,32200,-0.0105,0.0035,1.0074,0.202,-0.3007,0.1134,50.47,216.35,0.818,0.0
T001,N1,32300,-0.0024,0.0021,0.994,0.4213,0.0506,-0.3279,50.46,216.5,0.838,0.0
T001,N1,32400,-0.0036,-0.0056,1.0092,-0.4429,0.1935,0.0264,50.45,216.45,0.858,0.0
T001,N1,32500,-0.0136,0.0056,0.9948,0.301,-0.1373,-0.1056,50.49,216.47,0.878,0.0
T001,N1,32600,-0.0013,-0.0081,1.0004,-0.3411,0.0644,0.0551,50.52,216.64,0.898,0.0
T001,N1,32700,0.003,0.0021,1.0106,-0.3603,0.198,0.3306,50.42,216.56,0.918,0.0
T001,N1,32800,0.0098,-0.0027,0.995,-0.1345,0.4886,-0.0057,50.47,216.44,0.938,0.0
T001,N1,32900,0.0063,-0.0102,1.0104,0.5209,-0.0049,0.2663,50.5,216.42,0.958,0.0
T001,N1,33000,0.0022,0.0023,1.0042,-0.0928,-0.2568,0.0256,50.53,216.45,0.978,0.0
T001,N1,33100,0.0122,-0.0023,0.9977,0.063,-0.1435,-0.0745,50.5,216.48,0.998,0.0
T001,N1,33200,0.0088,0.004,0.9965,0.1891,0.522,0.0653,50.51,216.6,1.018,0.0
T001,N1,33300,0.0041,0.0013,1.0005,-0.0737,-0.1352,0.06,50.43,216.37,1.038,0.0
T001,N1,33400,-0.0118,-0.0068,0.9933,-0.0089,0.1148,-0.1312,50.45,216.76,1.058,0.0
T001,N1,33500,-0.0078,-0.0032,1.0,-0.3418,0.0464,0.2608,50.49,216.63,1.078,0.0
T001,N1,33600,0.0012,-0.0006,0.9919,-0.204,-0.5189,-0.0891,50.51,216.13,1.098,0.0
T001,N1,33700,-0.0016,0.0024,1.0025,0.1903,0.137,0.0523,50.51,216.55,1.118,0.0
T001,N1,33800,-0.0023,0.0026,1.0109,0.05,0.144,0.1953,50.46,216.7,1.138,0.0
T001,N1,33900,-0.001,-0.0111,0.9994,-0.0335,-0.2428,0.1118,50.48,216.62,1.158,0.0
T001,N1,34000,0.0067,0.0022,1.0005,-0.1419,-0.0531,0.0169,50.58,216.48,1.178,0.0
T001,N1,34100,-0.0034,-0.0119,0.9974,0.4257,-0.2632,-0.0155,50.52,216.55,1.198,0.0
T001,N1,34200,0.0013,-0.0082,0.9985,-0.0243,0.0763,0.0464,50.49,216.58,1.217,0.0
T001,N1,34300,0.0031,0.0028,1.0059,0.362,-0.0335,0.0761,50.45,216.67,1.237,0.0
T001,N1,34400,0.0074,0.0023,1.0098,0.0791,-0.1347,0.1236,50.48,216.34,1.257,0.0
T001,N1,34500,-0.0006,0.0086,1.0011,0.4622,0.037,0.174,50.52,216.46,1.277,0.0
T001,N1,34600,-0.0008,0.0022,0.9987,-0.1208,0.2497,0.0745,50.53,216.8,1.297,0.0
T001,N1,34700,0.0097,-0.0013,0.993,0.3012,-0.0861,-0.0199,50.55,216.55,1.317,0.0
T001,N1,34800,0.0017,-0.0019,0.9982,0.2392,-0.3068,-0.1721,50.54,216.78,1.337,0.0
T001,N1,34900,0.0001,-0.0015,0.9855,-0.1507,0.2311,-0.0848,50.5,216.99,1.357,0.0
T001,N1,35000,0.0007,-0.002,0.9998,0.0003,-0.0631,-0.1426,50.49,216.46,1.377,0.0
T001,N1,35100,0.0013,-0.0085,1.001,0.0674,-0.0436,-0.068,50.63,216.34,1.397,0.0
T001,N1,35200,-0.0158,-0.0028,0.9976,0.2701,0.1498,-0.1812,50.49,216.47,1.417,0.0
T001,N1,35300,-0.0057,0.0053,1.0073,-0.1282,-0.0126,0.0935,50.45,216.67,1.437,0.0
T001,N1,35400,0.0026,-0.0014,1.0077,-0.0778,-0.0295,0.066,50.44,216.69,1.457,0.0
T001,N1,35500,0.0027,-0.0105,0.9879,-0.0241,0.003,-0.1924,50.5,216.84,1.477,0.0
T001,N1,35600,-0.0016,0.0038,1.0168,-0.0764,-0.3799,0.3074,50.57,216.51,1.497,0.0
T001,N1,35700,0.0014,-0.0071,0.9903,-0.0877,-0.0336,-0.2378,50.49,216.58,1.517,0.0
T001,N1,35800,-0.0016,-0.0132,1.0073,-0.1926,-0.3616,0.0631,50.6,216.4,1.537,0.0
T001,N1,35900,0.0073,0.004,0.9969,0.3001,0.2,0.113,50.53,216.13,1.557,0.0
T001,N1,36000,0.0054,-0.0014,0.9939,-0.114,-0.1813,-0.2246,50.59,216.52,1.577,0.0
T001,N1,36100,0.0147,-0.0023,1.0014,0.2278,0.151,0.0077,50.5,216.33,1.597,0.0
T001,N1,36200,-0.1062,0.0574,1.0651,0.0747,0.6876,1.4442,50.5,216.62,1.619,0.0
T001,N1,36300,-0.0035,0.0192,1.0217,0.782,0.5911,0.4682,50.54,216.25,1.643,0.0
T001,N1,36400,-0.0253,0.0185,0.9629,0.7274,-0.1439,-0.5801,50.57,216.42,1.668,0.0
T001,N1,36500,-0.022,0.0361,1.0314,-0.9055,0.358,0.7436,50.54,216.59,1.692,0.0
T001,N1,36600,-0.0202,-0.0253,0.9795,0.2109,-0.7842,-0.4598,50.57,216.6,1.716,0.0
T001,N1,36700,0.0187,-0.026,1.0118,1.5588,-0.8866,0.1366,50.58,216.54,1.741,0.0
T001,N1,36800,0.0188,-0.0033,1.0252,0.2196,-0.1601,0.4153,50.48,216.82,1.765,0.0
T001,N1,36900,-0.0023,-0.0073,0.977,0.4914,-0.4222,-0.4525,50.53,216.78,1.79,0.0
T001,N1,37000,0.0176,-0.0105,1.0054,0.5354,0.9134,0.2689,50.52,216.44,1.814,0.0
T001,N1,37100,-0.0023,-0.0162,0.9887,0.3531,0.079,-0.3826,50.53,216.78,1.838,0.0
T001,N1,37200,0.0194,0.0026,0.9885,0.0257,-0.3336,-0.4386,50.58,216.81,1.863,0.0
T001,N1,37300,0.0027,-0.0018,1.0472,0.3848,0.0168,0.8568,50.54,216.54,1.887,0.0
T001,N1,37400,0.0003,-0.0075,1.0165,0.062,-0.0752,0.5126,50.46,216.56,1.912,0.0
T001,N1,37500,-0.0224,-0.0012,1.0205,-0.379,0.0911,0.417,50.54,216.55,1.936,0.0
T001,N1,37600,-0.0027,-0.02,0.9912,-0.0041,0.2517,-0.1198,50.51,216.45,1.96,0.0
T001,N1,37700,0.0112,0.0002,0.9924,0.0416,-0.0013,-0.3315,50.58,216.45,1.985,0.0
T001,N1,37800,-0.0037,-0.0045,1.004,-0.2062,-0.4252,0.0414,50.59,216.72,2.009,0.0
T001,N1,37900,0.0103,0.008,1.0078,0.3311,-0.4575,0.1659,50.44,216.59,2.034,0.0
T001,N1,38000,-0.0077,-0.0125,1.0074,-0.259,-0.1093,0.1116,50.51,216.44,2.058,0.0
T001,N1,38100,-0.01,-0.003,1.0095,-0.338,-0.1081,0.0352,50.57,216.38,2.082,0.0
T001,N1,38200,-0.0076,0.0021,0.9991,0.3525,-0.0871,-0.1699,50.48,216.41,2.107,0.0
T001,N1,38300,0.003,0.0026,1.0033,-0.2958,0.2952,0.0484,50.58,216.5,2.131,0.0
T001,N1,38400,0.0012,-0.0099,0.9893,-0.1548,0.0651,-0.1208,50.59,216.67,2.156,0.0
T001,N1,38500,-0.0006,-0.005,1.0041,0.125,0.1564,-0.0588,50.53,216.38,2.18,0.0
T001,N1,38600,-0.0145,-0.003,1.0076,0.1777,0.1804,0.21,50.5,216.65,2.204,0.0
T001,N1,38700,0.0005,-0.0036,1.0161,-0.0775,0.2869,0.3712,50.42,216.54,2.229,0.0
T001,N1,38800,-0.0014,-0.0,0.999,-0.1083,-0.2226,-0.0049,50.57,216.52,2.253,0.0
T001,N1,38900,-0.0003,-0.0018,1.0138,-0.3028,-0.1498,0.3272,50.63,216.64,2.278,0.0
T001,N1,39000,0.0052,0.0062,1.0041,-0.0597,0.3439,0.0582,50.62,216.61,2.302,0.0
T001,N1,39100,-0.0039,0.008,0.9954,-0.0305,0.0276,0.0135,50.52,216.27,2.326,0.0
T001,N1,39200,0.002,-0.0123,0.9857,-0.4378,0.2089,-0.0415,50.48,216.32,2.351,0.0
T001,N1,39300,0.0081,-0.0033,0.9916,-0.0757,-0.3894,-0.3481,50.58,216.44,2.375,0.0
T001,N1,39400,-0.001,0.0153,1.0145,-0.1845,0.3333,0.2437,50.54,216.52,2.4,0.0
T001,N1,39500,-0.0054,0.0002,1.002,0.1267,-0.0915,0.237,50.57,216.67,2.422,0.0
T001,N1,39600,0.0054,-0.0046,1.0024,0.1084,-0.3677,-0.093,50.56,216.48,2.442,0.0
T001,N1,39700,-0.0014,0.0019,0.9906,0.0396,-0.1815,-0.0735,50.56,216.74,2.462,0.0
T001,N1,39800,-0.0043,0.015,1.0093,0.0351,-0.6792,0.0865,50.6,216.35,2.482,0.0
T001,N1,39900,0.0044,0.0117,0.9921,0.0097,-0.043,-0.0597,50.6,216.39,2.502,0.0
T001,N1,40000,0.0099,0.0044,1.0181,-0.0798,0.4853,0.3569,50.52,216.42,2.522,0.0
T001,N1,40100,-0.0089,-0.0029,0.9986,0.0882,0.0483,0.0304,50.5,216.35,2.542,0.0
T001,N1,40200,0.0009,0.0118,0.9953,-0.3999,-0.1641,0.0036,50.43,216.66,2.562,0.0
T001,N1,40300,0.0025,0.0084,1.0067,0.0889,0.0642,-0.105,50.54,216.06,2.582,0.0
T001,N1,40400,-0.0005,0.01,1.0018,0.0668,-0.1937,0.0501,50.51,216.41,2.602,0.0
T001,N1,40500,0.0027,0.0048,1.0003,0.1117,0.2046,0.0941,50.58,216.64,2.622,0.0
T001,N1,40600,-0.0054,0.0046,0.9986,-0.1819,-0.0169,0.059,50.55,216.43,2.642,0.0
T001,N1,40700,-0.0024,-0.0094,1.0002,-0.1902,0.057,-0.1961,50.54,216.63,2.662,0.0
T001,N1,40800,-0.0003,0.0004,1.0026,-0.135,-0.0163,0.0818,50.6,216.8,2.682,0.0
T001,N1,40900,0.0088,-0.0047,1.0053,0.2367,0.3179,0.3086,50.57,216.47,2.702,0.0
T001,N1,41000,-0.0031,-0.0046,1.0015,-0.2208,-0.07,0.053,50.55,216.64,2.722,0.0
T001,N1,41100,-0.0088,0.0034,1.0106,-0.107,0.0726,0.0169,50.64,216.84,2.742,0.0
T001,N1,41200,-0.0089,0.001,1.0112,0.0852,-0.1346,0.2688,50.6,216.53,2.762,0.0
T001,N1,41300,-0.0056,0.0027,1.004,-0.0242,0.1047,0.3066,50.54,216.47,2.781,0.0
T001,N1,41400,-0.0051,0.0023,0.9952,-0.1606,-0.0032,-0.1692,50.53,216.62,2.801,0.0
T001,N1,41500,-0.0008,-0.006,1.0013,0.0484,0.0168,0.045,50.59,216.66,2.821,0.0
T001,N1,41600,0.0077,0.0059,0.9908,0.2526,0.3905,-0.0435,50.56,216.49,2.841,0.0
T001,N1,41700,-0.01,-0.0013,1.0059,-0.0334,-0.1916,0.2328,50.49,216.42,2.861,0.0
T001,N1,41800,-0.0013,-0.0053,1.0026,0.181,-0.5492,-0.0828,50.59,216.75,2.881,0.0
T001,N1,41900,-0.009,-0.0006,0.9984,-0.0801,-0.0603,-0.0707,50.6,216.44,2.901,0.0
T001,N1,42000,0.01,-0.0177,1.0036,-0.0816,0.017,-0.0021,50.6,216.66,2.921,0.0
T001,N1,42100,-0.0028,0.0004,1.0098,-0.0995,0.1131,0.076,50.62,216.52,2.941,0.0
T001,N1,42200,-0.0034,-0.0072,0.9996,-0.0407,0.0428,-0.1884,50.65,216.76,2.961,0.0
T001,N1,42300,-0.0008,-0.0013,0.9972,-0.0438,0.2029,-0.0698,50.63,216.35,2.981,0.0
T001,N1,42400,-0.0075,0.0039,1.0005,-0.0723,-0.0957,-0.0745,50.57,216.34,3.001,0.0
T001,N1,42500,0.0017,-0.0079,0.9993,0.0463,0.1604,-0.0458,50.54,216.61,3.021,0.0
T001,N1,42600,0.0083,-0.001,0.9955,0.347,-0.1405,0.0047,50.45,216.32,3.041,0.0
T001,N1,42700,0.0052,-0.0101,0.9957,0.0922,0.2462,-0.0552,50.54,216.51,3.061,0.0
T001,N1,42800,0.0008,0.0043,1.0016,0.3861,0.0687,0.0608,50.57,216.75,3.081,0.0
T001,N1,42900,0.0202,-0.0031,0.9834,0.0147,-0.0279,-0.2473,50.55,216.25,3.101,0.0
T001,N1,43000,0.0016,-0.0027,0.9996,-0.1908,0.0876,0.019,50.45,216.59,3.121,0.0
T001,N1,43100,0.0052,0.0005,1.0023,0.1866,0.2652,-0.0823,50.52,216.71,3.141,0.0
T001,N1,43200,0.0014,-0.0052,0.9919,-0.1692,-0.232,-0.1987,50.57,216.54,3.161,0.0
T001,N1,43300,0.013,-0.0091,1.0006,-0.1922,-0.0405,0.0015,50.49,216.42,3.181,0.0
T001,N1,43400,-0.0106,0.0062,0.9965,-0.2979,0.3618,-0.1246,50.55,216.51,3.201,0.0
T001,N1,43500,-0.0177,0.0286,1.0116,-0.6943,0.4439,0.3242,50.57,216.43,3.222,0.0
T001,N1,43600,0.0143,-0.0477,1.0524,-1.1686,-0.2161,1.0917,50.59,216.57,3.246,0.0
T001,N1,43700,-0.03,0.036,1.0247,-0.6572,-0.4729,0.5247,50.63,216.52,3.27,0.0
T001,N1,43800,0.0066,-0.0167,1.0028,-0.1687,0.6097,-0.0156,50.52,216.46,3.295,0.0
T001,N1,43900,-0.0062,0.0026,0.9891,0.1457,0.1638,-0.3155,50.56,216.6,3.319,0.0
T001,N1,44000,-0.0377,0.0171,0.9974,0.6252,-0.195,-0.1055,50.56,216.76,3.344,0.0
T001,N1,44100,-0.0139,-0.0102,1.0068,0.4232,0.142,-0.0199,50.58,216.56,3.368,0.0
T001,N1,44200,-0.0104,-0.0333,1.0111,-0.6438,-0.0511,0.0452,50.57,216.7,3.392,0.0
T001,N1,44300,0.0042,0.0011,0.9865,0.1729,0.0061,-0.2797,50.62,216.75,3.417,0.0
T001,N1,44400,0.0044,-0.0224,0.9909,0.1677,0.4415,-0.2402,50.43,216.42,3.441,0.0
T001,N1,44500,-0.0104,0.0161,0.9923,-0.1593,0.3656,0.1053,50.56,216.55,3.466,0.0
T001,N1,44600,-0.0055,0.0161,1.0032,-0.0127,0.2021,0.1204,50.56,216.43,3.49,0.0
T001,N1,44700,0.0039,-0.0033,0.998,0.0423,0.3816,0.0783,50.53,216.28,3.515,0.0
T001,N1,44800,-0.0166,0.0064,1.0013,-0.2643,0.1077,0.15,50.43,216.56,3.539,0.0
T001,N1,44900,0.0003,-0.0046,1.0089,-0.0142,0.2248,0.2286,50.55,216.33,3.563,0.0
T001,N1,45000,-0.0131,-0.007,0.9935,0.4016,0.2748,-0.209,50.52,216.55,3.588,0.0
T001,N1,45100,0.0139,0.0029,0.9851,-0.0261,0.2476,-0.4222,50.64,216.24,3.612,0.0
T001,N1,45200,-0.0077,-0.0021,0.9958,-0.1355,0.1377,-0.1085,50.57,216.5,3.637,0.0
T001,N1,45300,-0.0082,0.0092,0.999,-0.1814,0.0903,0.0386,50.52,216.24,3.661,0.0
T001,N1,45400,0.0027,-0.0028,1.0097,-0.3383,0.3792,0.0244,50.46,216.58,3.685,0.0
T001,N1,45500,-0.0074,-0.0043,1.0056,-0.2935,-0.1145,-0.0268,50.6,216.41,3.71,0.0
T001,N1,45600,-0.0064,0.0071,1.0021,-0.0654,0.0832,0.0636,50.61,216.4,3.734,0.0
T001,N1,45700,0.0081,-0.0083,0.9932,0.2109,-0.0293,-0.2113,50.56,216.65,3.759,0.0
T001,N1,45800,-0.0065,0.0038,1.0005,0.1836,-0.0287,-0.1454,50.61,216.43,3.783,0.0
T001,N1,45900,0.0024,-0.0066,0.9929,0.0427,-0.4982,-0.2642,50.56,216.49,3.807,0.0
T001,N1,46000,-0.0058,-0.0028,0.9971,-0.3292,0.3418,-0.1057,50.63,216.44,3.832,0.0
T001,N1,46100,0.0134,-0.0043,1.0098,0.1777,-0.2428,0.0533,50.63,216.54,3.856,0.0
T001,N1,46200,-0.0026,-0.0018,0.9973,0.0223,-0.0737,-0.0295,50.49,216.64,3.881,0.0
T001,N1,46300,-0.0079,0.0056,0.9948,0.1394,-0.0913,0.0438,50.5,216.61,3.905,0.0
T001,N1,46400,0.0059,-0.0005,0.9993,-0.0616,0.1815,0.0377,50.67,216.42,3.929,0.0
T001,N1,46500,-0.0097,0.0093,0.9966,-0.03,-0.0437,-0.0287,50.62,216.67,3.954,0.0
T001,N1,46600,-0.0003,0.0058,1.006,-0.285,-0.159,0.0084,50.51,216.37,3.978,0.0
T001,N1,46700,0.0052,-0.0103,0.9943,0.216,0.0257,-0.141,50.5,216.39,4.003,0.0
T001,N1,46800,-0.0035,0.0014,1.0025,0.2957,-0.1541,0.086,50.59,216.49,4.026,0.0
T001,N1,46900,-0.0093,-0.0019,0.997,-0.0954,-0.0254,-0.0904,50.52,216.67,4.046,0.0
T001,N1,47000,-0.0055,-0.0089,0.9973,-0.2426,0.1442,0.0987,50.56,216.36,4.066,0.0
T001,N1,47100,-0.0021,0.01,1.0119,0.1065,0.1372,0.2219,50.57,216.67,4.086,0.0
T001,N1,47200,0.0035,0.0115,0.9909,0.19,0.0599,0.0052,50.56,216.52,4.106,0.0
T001,N1,47300,-0.009,0.006,0.9881,-0.0797,-0.1981,-0.3073,50.63,216.46,4.126,0.0
T001,N1,47400,0.0034,-0.0034,0.9964,0.0981,-0.1352,0.1608,50.66,216.7,4.146,0.0
T001,N1,47500,-0.0096,0.0055,1.0031,-0.0709,-0.0751,-0.0237,50.55,216.42,4.166,0.0
T001,N1,47600,0.0073,-0.0013,0.9955,0.0736,0.0945,0.0097,50.52,216.88,4.186,0.0
T001,N1,47700,0.001,-0.0072,1.0023,-0.164,-0.2342,0.1196,50.59,216.52,4.206,0.0
T001,N1,47800,0.0003,0.0148,0.9905,-0.1165,-0.0804,-0.2723,50.66,216.56,4.226,0.0
T001,N1,47900,0.0017,0.002,1.0015,0.1557,0.2799,-0.0712,50.55,216.77,4.246,0.0
T001,N1,48000,0.0034,-0.0002,1.0091,-0.2042,0.3523,0.0082,50.62,216.55,4.266,0.0
T001,N1,48100,-0.0015,0.0083,1.0025,0.1635,-0.0944,-0.1136,50.53,216.72,4.286,0.0
T001,N1,48200,-0.002,-0.0009,1.0181,0.4107,-0.1285,0.3791,50.58,216.24,4.306,0.0
T001,N1,48300,-0.0028,0.007,0.9989,0.19,0.07,0.1169,50.52,216.47,4.326,0.0
T001,N1,48400,0.0142,0.0024,0.994,-0.2524,-0.1617,-0.1072,50.58,216.6,4.346,0.0
T001,N1,48500,0.0031,0.0072,1.0017,-0.0755,0.0056,0.0234,50.58,216.7,4.365,0.0
T001,N1,48600,0.0085,0.0018,1.0014,-0.0461,-0.1091,0.1743,50.62,216.64,4.385,0.0
T001,N1,48700,-0.0022,-0.0022,1.0015,0.1673,0.309,0.0484,50.68,216.62,4.405,0.0
T001,N1,48800,0.0024,-0.0056,1.0105,0.1858,-0.2539,0.2007,50.57,216.68,4.425,0.0
T001,N1,48900,-0.0062,-0.002,0.9983,-0.2415,0.3479,-0.063,50.5,216.59,4.445,0.0
T001,N1,49000,0.0077,-0.0034,0.9877,-0.1183,-0.1055,-0.0345,50.59,216.17,4.465,0.0
T001,N1,49100,-0.0044,-0.0019,0.9912,-0.0686,0.0631,-0.0773,50.61,216.71,4.485,0.0
T001,N1,49200,-0.0025,-0.0123,0.9974,-0.1474,0.2597,0.075,50.61,216.36,4.505,0.0
T001,N1,49300,-0.006,-0.0056,1.0114,0.2445,0.1979,0.173,50.59,216.54,4.525,0.0
T001,N1,49400,-0.0054,0.0016,1.0006,-0.2979,-0.0533,-0.0892,50.68,216.52,4.545,0.0
T001,N1,49500,0.0095,0.0024,0.9965,-0.1867,0.3262,-0.2803,50.61,216.5,4.565,0.0
T001,N1,49600,-0.0053,0.0002,0.9977,-0.2373,-0.0039,0.0583,50.6,216.33,4.585,0.0
T001,N1,49700,-0.0022,0.0042,0.9925,-0.0292,0.096,-0.2183,50.56,216.19,4.605,0.0
T001,N1,49800,0.0024,0.0136,1.0029,0.0075,-0.0514,0.159,50.52,216.32,4.625,0.0
T001,N1,49900,-0.0014,0.0002,0.9954,-0.1709,0.2114,-0.1331,50.63,216.59,4.645,0.0
T001,N1,50000,-0.0044,0.0023,0.9971,0.0529,-0.3098,-0.1306,50.63,216.24,4.665,0.0
T001,N1,50100,-0.0008,0.004,0.9858,0.0588,-0.1679,-0.2033,50.57,216.33,4.685,0.0
T001,N1,50200,0.0063,0.0016,0.9989,0.0989,-0.2528,0.1276,50.63,216.52,4.705,0.0
T001,N1,50300,0.0045,0.0055,1.0062,0.4135,0.0224,0.0269,50.62,216.29,4.725,0.0
T001,N1,50400,0.0092,-0.0102,1.0049,0.1638,-0.2403,-0.1229,50.59,216.36,4.745,0.0
T001,N1,50500,0.0008,-0.0033,1.0049,-0.0158,-0.0843,0.1162,50.58,216.46,4.765,0.0
T001,N1,50600,-0.0007,0.0009,1.01,-0.1437,-0.1899,0.0497,50.64,216.48,4.785,0.0
T001,N1,50700,-0.0014,-0.0131,0.9944,-0.328,0.4232,-0.3081,50.61,216.29,4.805,0.0
T001,N1,50800,0.004,0.0004,0.9776,0.0856,-0.1361,-0.2713,50.59,216.47,4.825,0.0
T001,N1,50900,0.0633,0.0037,0.9584,1.0182,-1.7013,-0.9243,50.58,216.53,4.849,0.0
T001,N1,51000,0.0457,-0.0277,0.9707,-0.5528,0.3423,-0.5914,50.61,216.29,4.873,0.0
T001,N1,51100,0.0177,0.0725,1.0652,1.521,2.1395,1.23,50.67,216.5,4.898,0.0
T001,N1,51200,0.0164,0.0129,1.028,0.2054,-0.1982,0.6416,50.63,216.36,4.922,0.0
T001,N1,51300,-0.0437,0.0204,0.9734,0.8169,0.1026,-0.4551,50.61,216.48,4.947,0.0
T001,N1,51400,0.0099,-0.0128,1.0115,0.2991,1.0479,0.0306,50.64,216.58,4.971,0.0
T001,N1,51500,-0.0023,-0.0784,1.0101,-0.1683,0.7282,0.1309,50.69,216.43,4.995,0.0
T001,N1,51600,0.0159,0.0102,1.0032,-0.7709,0.2708,-0.0768,50.65,216.59,5.02,0.0
T001,N1,51700,0.033,0.0125,1.0092,-0.1486,-0.3212,0.3253,50.64,216.56,5.044,0.0
T001,N1,51800,0.0203,0.0102,0.9838,0.4083,0.2355,-0.3005,50.66,216.57,5.069,0.0
T001,N1,51900,-0.0461,-0.0123,1.0101,-0.5172,-0.7783,0.3363,50.63,216.49,5.093,0.0
T001,N1,52000,-0.0042,0.0071,1.0042,0.1042,-0.3179,-0.0248,50.64,216.59,5.117,0.0
T001,N1,52100,0.034,-0.0124,1.0196,-0.8323,1.4664,0.2068,50.61,216.47,5.142,0.0
T001,N1,52200,0.0137,0.0369,0.9505,0.6533,1.0756,-0.9017,50.56,216.17,5.166,0.0
T001,N1,52300,-0.0135,0.0273,1.0367,0.1765,0.1705,0.6693,50.65,216.31,5.191,0.0
T001,N1,52400,0.0014,-0.0055,1.0166,-0.6761,-1.0396,0.4344,50.66,216.38,5.215,0.0
T001,N1,52500,0.0179,-0.0029,1.0073,-0.3121,-0.7187,0.0994,50.63,216.4,5.239,0.0
T001,N1,52600,0.0199,0.0276,1.0163,0.4552,-0.2371,0.1045,50.69,216.45,5.264,0.0
T001,N1,52700,0.0046,-0.0028,1.0136,-0.383,-0.0143,0.068,50.6,216.29,5.288,0.0
T001,N1,52800,0.0028,0.0017,0.9866,-0.399,-0.3901,-0.1583,50.56,216.73,5.313,0.0
T001,N1,52900,0.0115,-0.0099,0.9974,-0.1997,0.1056,-0.11,50.62,216.41,5.337,0.0
T001,N1,53000,0.0067,0.0191,0.9961,0.5817,0.4333,-0.1044,50.58,216.42,5.362,0.0
T001,N1,53100,-0.0102,-0.0065,1.0128,-0.0505,0.1674,0.3994,50.68,216.31,5.386,0.0
T001,N1,53200,-0.0156,-0.0012,1.0179,0.1189,0.1671,0.2507,50.62,216.26,5.41,0.0
T001,N1,53300,0.0029,-0.0072,1.0018,-0.095,-0.2475,-0.2285,50.71,216.39,5.435,0.0
T001,N1,53400,-0.0026,0.0034,1.0117,0.1306,-0.3696,0.1355,50.71,216.42,5.459,0.0
T001,N1,53500,0.0054,-0.0119,1.0021,-0.0964,-0.2498,0.1187,50.61,216.42,5.484,0.0
T001,N1,53600,-0.0025,-0.0035,0.988,-0.1049,-0.2698,-0.2361,50.61,216.69,5.508,0.0
T001,N1,53700,-0.0077,-0.0051,0.9916,-0.1681,-0.1275,-0.2974,50.68,216.42,5.532,0.0
T001,N1,53800,0.0027,-0.0064,0.9786,-0.4026,0.1242,-0.2756,50.7,216.42,5.557,0.0
T001,N1,53900,-0.0062,-0.0042,0.9973,-0.0496,-0.3146,-0.0563,50.55,216.54,5.581,0.0
T001,N1,54000,0.0128,-0.0057,1.0065,0.2255,0.156,0.1446,50.67,216.4,5.606,0.0
T001,N1,54100,0.0018,-0.0026,0.9979,0.1394,0.3158,-0.0583,50.54,216.49,5.63,0.0
T001,N1,54200,0.0015,-0.0049,0.9984,0.1577,0.5437,-0.1094,50.63,216.22,5.65,0.0
T001,N1,54300,0.0001,-0.004,1.0042,0.0034,0.2056,0.1493,50.71,216.23,5.67,0.0
T001,N1,54400,0.0045,-0.0033,1.0055,0.0371,-0.0619,0.1082,50.81,216.44,5.69,0.0
T001,N1,54500,-0.0077,-0.009,1.0004,-0.1813,0.193,0.1314,50.65,216.4,5.71,0.0
T001,N1,54600,-0.006,-0.0104,0.9827,-0.1327,0.4595,-0.2765,50.6,216.29,5.73,0.0
T001,N1,54700,-0.0068,0.0039,0.9929,-0.3892,-0.5719,-0.0799,50.64,216.44,5.75,0.0
T001,N1,54800,0.0218,0.0061,1.0143,-0.0785,0.4915,0.0451,50.66,216.44,5.77,0.0
T001,N1,54900,0.0095,0.0091,0.9976,0.0428,-0.2157,-0.1199,50.64,216.3,5.79,0.0
T001,N1,55000,-0.0157,-0.0016,1.0067,0.2906,0.1058,-0.0287,50.62,216.34,5.81,0.0
T001,N1,55100,0.0011,-0.0026,1.008,0.2021,0.0636,0.2867,50.66,216.45,5.83,0.0
T001,N1,55200,0.003,0.0007,0.9917,0.0672,0.0373,0.0003,50.69,216.25,5.85,0.0
T001,N1,55300,-0.0113,0.0038,1.0064,-0.2411,-0.0202,-0.0829,50.66,216.3,5.87,0.0
T001,N1,55400,-0.0042,-0.0034,0.9987,-0.0378,-0.1296,-0.0825,50.63,216.48,5.89,0.0
T001,N1,55500,-0.0028,-0.0022,0.9896,0.1717,0.1151,-0.1552,50.64,216.4,5.91,0.0
T001,N1,55600,-0.0094,-0.004,1.0109,-0.1055,-0.0883,0.2229,50.65,216.32,5.929,0.0
T001,N1,55700,-0.0019,0.0031,0.9939,0.1741,0.2532,-0.2567,50.63,216.26,5.949,0.0
T001,N1,55800,0.0024,0.0087,1.0085,0.0115,-0.2231,-0.135,50.64,216.23,5.969,0.0
T001,N1,55900,0.004,0.0081,1.0045,0.087,-0.0192,0.0048,50.7,216.37,5.989,0.0
T001,N1,56000,0.0054,-0.0051,0.9864,-0.1973,0.1267,-0.4707,50.66,216.68,6.009,0.0
T001,N1,56100,0.0048,0.003,1.0052,0.2907,0.3116,0.0849,50.58,216.46,6.029,0.0
T001,N1,56200,0.0021,-0.002,0.9975,-0.2973,0.1725,-0.0376,50.71,216.18,6.049,0.0
T001,N1,56300,0.0055,0.0014,1.0045,0.178,0.1812,0.0563,50.68,216.5,6.069,0.0
T001,N1,56400,0.0063,-0.0069,0.9943,-0.0253,0.2587,-0.1323,50.59,216.28,6.089,0.0
T001,N1,56500,0.0097,0.0089,1.0021,0.0752,0.4702,-0.0268,50.65,216.39,6.109,0.0
T001,N1,56600,-0.0008,0.0048,0.9836,0.0398,0.2615,-0.2643,50.63,216.3,6.129,0.0
T001,N1,56700,-0.002,-0.0059,0.9941,0.0351,0.1492,-0.1604,50.71,216.71,6.149,0.0
T001,N1,56800,0.0075,0.0027,0.9977,0.0351,-0.1888,0.053,50.66,216.25,6.169,0.0
T001,N1,56900,-0.0027,0.0019,0.998,0.1907,-0.1236,-0.0118,50.68,216.47,6.189,0.0
T001,N1,57000,-0.0013,0.0003,1.0103,0.2898,-0.0127,0.2085,50.68,216.31,6.209,0.0
T001,N1,57100,-0.0165,-0.0004,1.0009,0.1081,0.1661,0.0137,50.61,216.51,6.229,0.0
T001,N1,57200,0.0004,0.0129,1.0078,0.3386,-0.115,0.0837,50.75,216.45,6.249,0.0
T001,N1,57300,0.001,-0.0023,1.0,0.0077,0.3149,0.0646,50.71,216.59,6.269,0.0
T001,N1,57400,0.0011,-0.002,0.9972,0.2936,-0.2702,-0.0586,50.65,216.51,6.289,0.0
T001,N1,57500,0.0007,0.0058,0.9922,0.0097,-0.2811,-0.1249,50.69,216.31,6.309,0.0
T001,N1,57600,-0.0056,-0.0113,1.0052,0.1491,0.0131,0.0419,50.73,216.85,6.329,0.0
T001,N1,57700,-0.002,0.0017,0.9921,0.1089,-0.1229,-0.2653,50.69,216.49,6.349,0.0
T001,N1,57800,0.0131,-0.0056,1.0043,-0.0222,-0.0652,0.0373,50.77,216.35,6.369,0.0
T001,N1,57900,0.008,-0.0136,0.9975,0.0127,-0.0777,-0.1552,50.84,216.48,6.389,0.0
T001,N1,58000,0.0064,0.0179,0.9976,0.1516,-0.1675,0.1162,50.69,216.55,6.409,0.0
T001,N1,58100,0.0117,0.0071,1.0005,0.1208,0.0546,0.1034,50.67,216.55,6.429,0.0
T001,N1,58200,-0.0502,0.0537,0.9311,-0.182,-0.7614,-1.4645,50.65,216.54,6.452,0.0
T001,N1,58300,0.0673,0.0085,0.8939,-3.7518,-0.5906,-2.168,50.59,216.61,6.476,0.0
T001,N1,58400,-0.0065,0.0208,0.9952,1.9108,0.0665,-0.2518,50.76,216.59,6.501,0.0
T001,N1,58500,0.0214,-0.029,0.9623,-0.4698,0.8532,-1.0215,50.68,216.32,6.525,0.0
T001,N1,58600,-0.0019,-0.0053,0.9901,-0.8739,1.053,-0.2654,50.74,216.79,6.55,0.0
T001,N1,58700,0.0355,-0.026,1.0106,-0.8389,0.2449,0.1608,50.75,216.76,6.574,0.0
T001,N1,58800,0.0044,-0.0349,0.9643,-0.2623,0.2048,-0.5752,50.65,216.59,6.598,0.0
T001,N1,58900,0.0098,0.0424,1.0137,-0.431,-0.1198,0.263,50.66,216.47,6.623,0.0
T001,N1,59000,-0.0369,-0.0568,1.0109,-0.4766,0.3483,0.374,50.79,216.48,6.647,0.0
T001,N1,59100,-0.0069,0.0141,0.9844,-0.5046,0.3973,-0.4059,50.7,216.42,6.672,0.0
T001,N1,59200,0.0096,0.012,1.002,0.3002,0.7714,-0.1794,50.67,216.44,6.696,0.0
T001,N1,59300,-0.008,-0.001,1.0087,0.7966,-0.7198,0.3208,50.65,216.15,6.72,0.0
T001,N1,59400,-0.0005,0.0156,0.9913,0.2697,-0.1811,-0.3144,50.69,216.71,6.745,0.0
T001,N1,59500,-0.0159,0.0259,0.994,0.4393,0.0466,-0.1905,50.78,216.65,6.769,0.0
T001,N1,59600,-0.003,0.0031,0.9992,-0.1505,-0.2473,-0.0923,50.74,216.23,6.794,0.0
T001,N1,59700,-0.0011,0.004,0.9967,-0.0386,-0.2227,-0.0276,50.72,216.6,6.818,0.0
T001,N1,59800,0.0025,-0.0229,1.024,-0.0789,-0.2549,0.3095,50.78,216.48,6.842,0.0
T001,N1,59900,-0.0029,0.01,0.9912,-0.1355,0.3295,-0.1797,50.77,216.46,6.867,0.0
T001,N1,60000,0.0011,-0.0085,1.0129,-0.0956,-0.1165,0.2637,50.72,216.57,6.891,0.0
T001,N1,60100,0.007,0.0045,0.9939,0.1424,-0.4142,-0.2291,50.83,216.22,6.916,0.0
T001,N1,60200,-0.0029,0.0002,1.0082,0.1287,0.1262,0.1237,50.68,216.47,6.94,0.0
T001,N1,60300,-0.0125,-0.013,0.9916,0.0148,0.0097,-0.2608,50.76,216.5,6.964,0.0
T001,N1,60400,-0.0105,-0.0041,0.9907,-0.179,-0.0384,-0.1305,50.69,216.49,6.989,0.0
T001,N1,60500,-0.0062,-0.0121,0.9846,-0.0435,-0.2627,0.1209,50.76,216.28,7.013,0.0
T001,N1,60600,0.006,0.0059,1.0084,-0.0956,0.1552,0.0928,50.69,216.54,7.038,0.0
T001,N1,60700,-0.0061,-0.0087,0.9937,0.084,0.0886,-0.2379,50.72,216.65,7.062,0.0
T001,N1,60800,-0.0005,0.0057,1.0064,0.0352,-0.3104,0.0989,50.82,216.56,7.086,0.0
T001,N1,60900,0.0095,-0.0018,1.0034,0.0251,-0.4751,0.021,50.75,216.46,7.111,0.0
T001,N1,61000,0.0002,-0.0033,1.0136,0.0484,-0.0833,0.1925,50.73,216.91,7.135,0.0
T001,N1,61100,-0.0109,-0.0038,1.0095,0.0796,-0.005,0.1924,50.67,216.37,7.16,0.0
T001,N1,61200,-0.0139,-0.0001,0.9956,0.1759,-0.125,-0.2906,50.73,216.61,7.184,0.0
T001,N1,61300,0.0036,-0.0093,0.9999,-0.3061,0.0224,0.1267,50.67,216.55,7.209,0.0
T001,N1,61400,0.0033,0.0012,0.9956,-0.0433,0.1962,-0.1521,50.77,216.82,7.233,0.0
T001,N1,61500,-0.0049,-0.0063,1.0023,0.1927,-0.0043,-0.0509,50.76,216.57,7.254,0.0
T001,N1,61600,0.0158,0.0045,0.9909,0.3151,0.0872,0.0041,50.72,216.59,7.274,0.0
T001,N1,61700,0.004,-0.0086,0.9906,-0.0859,0.2447,-0.27,50.81,216.59,7.294,0.0
T001,N1,61800,-0.0146,-0.0044,1.0093,-0.0715,0.0189,0.1397,50.8,216.35,7.314,0.0
T001,N1,61900,0.0013,-0.0019,0.992,-0.069,-0.1796,-0.0525,50.73,216.39,7.334,0.0
T001,N1,62000,-0.0021,0.0014,0.995,0.1722,-0.2315,-0.0584,50.76,216.48,7.354,0.0
T001,N1,62100,0.0005,0.0053,0.9968,0.2376,-0.3216,-0.2033,50.7,216.65,7.374,0.0
T001,N1,62200,0.0006,0.0113,0.9988,0.158,-0.029,0.1144,50.71,216.55,7.394,0.0
T001,N1,62300,0.0049,0.0027,0.9865,0.2834,0.2922,-0.1972,50.67,216.48,7.414,0.0
T001,N1,62400,-0.0044,-0.0019,0.9933,-0.0122,-0.2896,-0.1553,50.71,216.72,7.434,0.0
T001,N1,62500,-0.0005,0.0064,1.0082,0.3917,0.0492,0.1196,50.73,216.24,7.454,0.0
T001,N1,62600,0.0049,0.001,0.9882,-0.2048,-0.2404,-0.2881,50.65,216.35,7.474,0.0
T001,N1,62700,-0.0033,0.0024,1.0046,0.241,-0.468,-0.0971,50.77,216.18,7.493,0.0
T001,N1,62800,0.009,0.0127,1.0102,-0.0722,-0.1915,0.1107,50.79,216.76,7.513,0.0
T001,N1,62900,-0.0013,-0.0042,1.004,0.0815,0.0364,-0.0711,50.73,216.57,7.533,0.0
T001,N1,63000,-0.0046,-0.0014,1.0049,0.0445,0.1687,0.1099,50.6,216.73,7.553,0.0
T001,N1,63100,-0.004,0.0083,1.0002,0.0533,0.1339,0.064,50.72,216.56,7.573,0.0
T001,N1,63200,-0.0113,0.0032,0.9998,0.3103,0.112,0.1963,50.67,216.73,7.593,0.0
T001,N1,63300,0.0046,0.0032,1.005,-0.1001,-0.3155,0.0782,50.71,216.53,7.613,0.0
T001,N1,63400,0.0045,-0.0035,0.9933,-0.0277,-0.1839,-0.2501,50.82,216.62,7.633,0.0
T001,N1,63500,0.0019,0.0141,1.0044,-0.4153,0.3769,-0.1082,50.63,216.59,7.653,0.0
T001,N1,63600,0.0106,0.0107,1.006,-0.0188,-0.2684,0.3014,50.71,216.61,7.673,0.0
T001,N1,63700,-0.0019,0.0096,1.0029,-0.1885,0.2302,0.1306,50.79,216.81,7.693,0.0
T001,N1,63800,-0.0001,-0.0088,1.0039,0.0812,0.2448,-0.0384,50.72,216.31,7.713,0.0
T001,N1,63900,-0.0119,0.0046,0.9981,0.7139,0.2318,0.0549,50.72,216.55,7.733,0.0
T001,N1,64000,-0.0009,-0.0055,1.0011,0.4542,-0.1096,0.1039,50.86,216.6,7.753,0.0
T001,N1,64100,-0.0057,-0.0013,1.0112,-0.4743,0.2876,0.0916,50.78,216.59,7.773,0.0
T001,N1,64200,0.0033,0.002,0.9973,0.0563,-0.0384,-0.0784,50.81,216.52,7.793,0.0
T001,N1,64300,0.0026,0.0071,0.9924,0.1442,-0.1639,-0.1128,50.8,216.49,7.813,0.0
T001,N1,64400,0.0018,-0.0109,1.0047,-0.0145,-0.158,0.0278,50.78,216.81,7.833,0.0
T001,N1,64500,0.0148,0.0033,0.988,-0.1406,-0.1454,-0.2647,50.83,216.56,7.853,0.0
T001,N1,64600,-0.0002,-0.0132,0.9976,-0.1247,0.017,-0.0084,50.87,216.92,7.873,0.0
T001,N1,64700,0.0045,0.0025,0.9928,-0.1117,0.311,-0.1959,50.68,216.64,7.893,0.0
T001,N1,64800,-0.0021,0.0049,0.996,-0.2416,-0.0372,-0.0198,50.76,216.53,7.913,0.0
T001,N1,64900,-0.0018,0.0033,1.0028,-0.1177,-0.084,0.1576,50.76,216.65,7.933,0.0
T001,N1,65000,0.0004,-0.0044,1.0032,-0.0925,-0.4036,0.1587,50.74,216.59,7.953,0.0
T001,N1,65100,-0.013,0.0026,0.9976,-0.0885,0.1152,-0.082,50.8,216.77,7.973,0.0
T001,N1,65200,0.0015,0.0023,1.0058,-0.2252,-0.1176,0.0684,50.77,216.4,7.993,0.0
T001,N1,65300,0.0006,0.0027,0.999,0.008,-0.1988,0.1066,50.85,216.32,8.013,0.0
T001,N1,65400,-0.0134,0.0115,0.9915,0.0616,-0.0567,-0.2903,50.81,216.64,8.033,0.0
T001,N1,65500,0.0206,0.0188,1.0145,-0.2852,1.3839,0.2903,50.83,216.7,8.055,0.0
T001,N1,65600,-0.0194,0.0331,0.9303,2.2364,0.6551,-1.3398,50.71,216.6,8.079,0.0
T001,N1,65700,-0.0024,-0.0236,0.9733,-0.7614,0.7049,-0.4074,50.73,216.67,8.104,0.0
T001,N1,65800,0.0168,0.0354,0.9896,0.1653,-0.2016,-0.2937,50.73,216.64,8.128,0.0
T001,N1,65900,0.026,0.0036,0.9703,-0.3783,-0.3853,-0.5977,50.82,216.34,8.152,0.0
T001,N1,66000,-0.0069,-0.0076,0.9759,0.6317,0.7769,-0.5074,50.71,216.61,8.177,0.0
T001,N1,66100,0.0103,0.0039,0.9561,-0.5199,-0.4814,-0.7419,50.72,216.76,8.201,0.0
T001,N1,66200,-0.038,0.0069,0.9806,1.3994,0.7341,-0.4047,50.71,216.59,8.226,0.0
T001,N1,66300,0.0094,0.0172,0.9706,-1.0743,0.7318,-0.5954,50.9,216.38,8.25,0.0
T001,N1,66400,-0.0254,0.0328,1.0053,0.9365,-0.4955,0.0506,50.75,216.52,8.275,0.0
T001,N1,66500,-0.0091,-0.0203,0.9966,0.0845,-0.3371,-0.1137,50.78,216.64,8.299,0.0
T001,N1,66600,-0.0175,0.0091,0.9843,0.1918,-0.2825,-0.3416,50.7,216.82,8.323,0.0
T001,N1,66700,0.0091,-0.0026,0.985,0.5335,-0.4844,-0.3845,50.8,216.27,8.348,0.0
T001,N1,66800,-0.005,-0.0368,1.0049,0.2605,-0.086,0.0597,50.66,216.64,8.372,0.0
T001,N1,66900,-0.0031,0.0103,0.9798,-0.2089,0.5524,-0.4452,50.7,216.44,8.397,0.0
T001,N1,67000,0.0104,0.013,1.012,0.056,-0.3093,0.3572,50.7,216.65,8.421,0.0
T001,N1,67100,0.0036,0.0145,0.9853,0.5975,0.3378,-0.3197,50.75,216.67,8.445,0.0
T001,N1,67200,0.0038,-0.0046,0.9865,-0.2067,-0.1171,-0.2952,50.7,216.54,8.47,0.0
T001,N1,67300,-0.0072,0.0027,0.9982,0.5076,0.4843,-0.1213,50.82,216.67,8.494,0.0
T001,N1,67400,0.0097,-0.0063,0.9819,0.1347,-0.0119,-0.1911,50.76,216.74,8.519,0.0
T001,N1,67500,0.0143,-0.0007,0.9901,-0.1309,0.0688,-0.0219,50.71,216.56,8.543,0.0
T001,N1,67600,0.0012,0.0052,0.9987,-0.2502,-0.1958,0.1726,50.8,216.4,8.567,0.0
T001,N1,67700,-0.003,0.01,0.9956,0.0111,-0.2258,-0.1572,50.73,216.8,8.592,0.0
T001,N1,67800,-0.0036,-0.0006,0.9941,-0.3003,0.3998,-0.1321,50.72,216.72,8.616,0.0
T001,N1,67900,-0.0027,0.0038,0.9988,-0.1255,0.0991,0.0802,50.79,216.67,8.641,0.0
T001,N1,68000,-0.0083,0.0054,0.9914,-0.1066,0.1722,0.0205,50.62,216.48,8.665,0.0
T001,N1,68100,-0.0045,-0.0005,1.0054,-0.2117,-0.0818,0.1593,50.79,216.74,8.689,0.0
T001,N1,68200,-0.0117,0.0056,0.9944,0.0794,0.0669,-0.0799,50.72,216.89,8.714,0.0
T001,N1,68300,0.0083,-0.0029,1.0009,0.1131,-0.2068,0.0669,50.72,216.57,8.738,0.0
T001,N1,68400,0.0137,-0.0041,1.0026,-0.0828,-0.2638,0.2232,50.85,216.61,8.763,0.0
T001,N1,68500,-0.0048,0.0033,1.0008,-0.0571,-0.0887,0.0233,50.73,216.45,8.787,0.0
T001,N1,68600,0.0028,-0.0064,0.9905,-0.0294,0.0727,-0.0988,50.8,216.51,8.811,0.0
T001,N1,68700,-0.005,0.0034,0.9974,0.0871,-0.0666,-0.0167,50.77,216.45,8.836,0.0
T001,N1,68800,0.0047,0.0092,1.0008,-0.1873,0.0721,-0.1959,50.77,216.62,8.858,0.0
T001,N1,68900,0.0021,-0.0066,1.015,-0.0427,0.0868,0.175,50.75,216.57,8.878,0.0
T001,N1,69000,0.0021,-0.0004,0.9916,0.0681,0.2058,-0.231,50.75,216.68,8.898,0.0
T001,N1,69100,-0.0049,-0.0027,1.0081,-0.1664,-0.2982,-0.1903,50.85,216.49,8.918,0.0
T001,N1,69200,0.0072,0.0139,0.9916,-0.3023,0.2951,-0.0994,50.82,216.6,8.938,0.0
T001,N1,69300,-0.0043,0.0027,1.0131,0.0885,0.3233,0.1887,50.75,216.49,8.958,0.0
T001,N1,69400,0.0056,0.002,0.9956,0.1155,-0.0611,0.0806,50.72,216.67,8.978,0.0
T001,N1,69500,-0.0087,0.0039,0.997,-0.0754,-0.0649,0.0805,50.75,216.4,8.998,0.0
T001,N1,69600,0.003,0.0051,0.9948,0.1379,-0.2646,0.1099,50.83,216.69,9.018,0.0
T001,N1,69700,-0.0053,0.0028,1.0055,-0.3574,-0.0226,0.2373,50.84,216.63,9.038,0.0
T001,N1,69800,0.0133,0.0013,1.005,-0.4539,0.4344,0.0207,50.81,216.71,9.058,0.0
T001,N1,69900,0.0014,0.0001,1.003,-0.1428,-0.0032,-0.0647,50.7,216.45,9.077,0.0
T001,N1,70000,0.002,-0.0086,1.0013,0.2978,-0.0837,0.0537,50.82,216.79,9.097,0.0
T001,N1,70100,0.0036,-0.0043,1.0072,-0.2931,-0.1213,0.316,50.85,216.63,9.117,0.0
T001,N1,70200,0.0055,0.0072,1.0026,-0.1339,-0.2178,0.1872,50.8,216.71,9.137,0.0
T001,N1,70300,0.0004,-0.0008,1.0025,0.0857,0.0988,0.0499,50.88,216.41,9.157,0.0
T001,N1,70400,0.0033,-0.0113,0.9923,-0.0759,-0.066,-0.2644,50.72,216.5,9.177,0.0
T001,N1,70500,-0.0046,-0.0036,1.0005,0.598,0.3797,0.0919,50.82,216.63,9.197,0.0
T001,N1,70600,-0.0046,0.0037,0.9991,-0.1137,-0.0841,0.0337,50.73,216.9,9.217,0.0
T001,N1,70700,-0.0215,-0.0091,1.0084,-0.1929,0.299,0.2547,50.84,216.78,9.237,0.0
T001,N1,70800,-0.0129,-0.001,1.0138,0.054,0.1725,0.3332,50.81,216.71,9.257,0.0
T001,N1,70900,-0.0036,0.0033,0.9915,-0.0427,-0.1794,-0.0655,50.86,216.55,9.277,0.0
T001,N1,71000,0.0109,0.0023,0.9993,-0.1669,-0.0907,-0.0531,50.8,216.53,9.297,0.0
T001,N1,71100,0.0033,0.0064,0.9921,0.561,-0.1384,-0.208,50.75,216.73,9.317,0.0
T001,N1,71200,-0.0015,0.0036,0.9972,0.1045,0.0314,-0.0215,50.74,216.77,9.337,0.0
T001,N1,71300,-0.0169,0.0077,0.9902,0.1124,0.0235,-0.2569,50.75,216.72,9.357,0.0
T001,N1,71400,0.012,-0.0003,0.9937,-0.097,0.1288,0.0389,50.74,216.95,9.377,0.0
T001,N1,71500,-0.0062,-0.0107,0.9931,-0.1386,0.2535,-0.3024,50.84,216.61,9.397,0.0
T001,N1,71600,0.0035,0.0107,1.006,0.2763,-0.0715,0.1439,50.84,216.75,9.417,0.0
T001,N1,71700,-0.0011,-0.0004,0.9926,-0.3353,-0.1197,-0.0828,50.71,216.47,9.437,0.0
T001,N1,71800,0.0091,-0.0014,1.0104,-0.0826,0.0365,0.2332,50.79,216.76,9.457,0.0
T001,N1,71900,0.0118,-0.0043,0.9973,-0.1492,0.1803,-0.1724,50.8,216.95,9.477,0.0
T001,N1,72000,-0.0051,-0.003,0.9906,0.3866,0.1112,-0.2134,50.75,216.58,9.497,0.0
T001,N1,72100,0.017,-0.0023,0.9996,-0.0202,-0.0123,-0.0257,50.8,216.86,9.517,0.0
T001,N1,72200,0.0048,0.0024,0.9972,-0.0219,0.1736,-0.0382,50.86,216.93,9.537,0.0
T001,N1,72300,-0.0098,-0.0015,1.0067,0.0559,0.3358,0.1725,50.83,216.61,9.557,0.0
T001,N1,72400,-0.0022,0.006,1.0072,0.1683,0.072,0.0912,50.86,216.8,9.577,0.0
T001,N1,72500,0.0084,0.0002,0.9913,-0.2819,0.0747,-0.0953,50.75,216.95,9.597,0.0
T001,N1,72600,-0.007,0.0,1.0014,0.0838,-0.1557,-0.0989,50.79,216.74,9.617,0.0
T001,N1,72700,-0.0057,-0.006,0.9911,-0.0491,0.4491,-0.0946,50.75,216.83,9.637,0.0
T001,N1,72800,-0.0467,-0.0083,0.954,0.9401,0.291,-1.12,50.81,216.44,9.658,0.0
T001,N1,72900,-0.0272,-0.0113,0.9638,-0.6199,0.6909,-0.5207,50.81,216.8,9.682,0.0
T001,N1,73000,0.004,0.011,0.9852,-0.0946,0.0085,-0.2838,50.84,216.8,9.707,0.0
T001,N1,73100,-0.0127,0.0137,0.9829,-0.1747,-0.393,-0.5948,50.86,216.53,9.731,0.0
T001,N1,73200,-0.0185,0.0202,1.0146,-0.5717,-0.6414,0.2803,50.83,216.57,9.755,0.0
T001,N1,73300,0.015,0.0158,0.961,-0.6568,0.4374,-0.7991,50.74,216.82,9.78,0.0
T001,N1,73400,0.0248,0.0088,1.0167,-0.3513,-0.4317,0.264,50.72,216.69,9.804,0.0
T001,N1,73500,0.0043,0.0039,0.9968,0.2169,0.297,-0.118,50.81,216.91,9.829,0.0
T001,N1,73600,0.0076,-0.009,1.0074,-0.225,0.2849,0.1679,50.86,216.79,9.853,0.0
T001,N1,73700,-0.024,-0.0071,1.0275,-0.1846,0.3986,0.4226,50.78,216.75,9.877,0.0
T001,N1,73800,-0.0091,-0.0029,0.9923,-0.7117,-0.1143,-0.3154,50.7,216.71,9.902,0.0
T001,N1,73900,0.0049,-0.0079,1.001,-0.1384,-0.2739,0.0436,50.89,216.77,9.926,0.0
T001,N1,74000,0.0096,-0.0023,1.0085,0.2616,0.0177,0.2715,50.8,216.85,9.951,0.0
T001,N1,74100,0.0071,0.006,1.0032,0.3138,-0.1213,-0.0005,50.79,216.82,9.975,0.0
T001,N1,74200,0.026,0.0031,1.0092,0.0769,-0.4855,0.052,50.72,216.65,9.999,0.0
T001,N1,74300,-0.0073,0.0025,1.0101,0.06,0.3901,0.1077,50.78,216.91,10.024,0.0
T001,N1,74400,0.0119,0.0092,1.0025,-0.1121,-0.3183,0.1208,50.81,216.84,10.048,0.0
T001,N1,74500,-0.0097,-0.0046,0.9869,0.4142,-0.3468,-0.1461,50.8,216.78,10.073,0.0
T001,N1,74600,-0.0109,-0.0001,1.0086,0.405,-0.0351,0.0454,50.74,216.74,10.097,0.0
T001,N1,74700,0.0064,0.0084,1.0085,0.0704,0.2827,0.1045,50.78,216.8,10.122,0.0
T001,N1,74800,-0.0037,-0.0049,0.9882,0.5257,-0.3932,-0.15,50.74,216.47,10.146,0.0
T001,N1,74900,-0.0113,0.0097,0.9933,-0.0737,0.1607,-0.1958,50.85,216.79,10.17,0.0
T001,N1,75000,0.0024,0.0052,0.9953,-0.3031,-0.2588,0.045,50.81,216.99,10.195,0.0
T001,N1,75100,0.0016,-0.0037,0.9926,-0.1955,0.0159,-0.2423,50.74,216.78,10.219,0.0
T001,N1,75200,0.0015,-0.0055,0.9935,-0.0684,-0.2039,0.1147,50.72,216.78,10.244,0.0
T001,N1,75300,0.0159,-0.0088,0.9964,0.3455,0.3523,0.088,50.79,216.67,10.268,0.0
T001,N1,75400,-0.004,0.0054,1.0083,-0.1979,-0.1297,0.2329,50.75,216.84,10.292,0.0
T001,N1,75500,0.0011,-0.0098,0.9963,-0.0871,-0.0573,0.0257,50.76,216.74,10.317,0.0
T001,N1,75600,0.0054,0.0197,1.0042,-0.1271,-0.1109,0.0804,50.73,216.96,10.341,0.0
T001,N1,75700,-0.0097,0.0025,1.0139,0.0713,0.0538,0.219,50.73,216.65,10.366,0.0
T001,N1,75800,0.0036,0.0081,0.997,0.1554,0.1207,-0.159,50.79,216.71,10.39,0.0
T001,N1,75900,0.0003,0.0052,0.9978,-0.1058,0.1118,0.101,50.77,216.67,10.414,0.0
T001,N1,76000,-0.0059,0.001,1.0034,-0.3194,0.0797,0.1329,50.91,217.03,10.439,0.0
T001,N1,76100,0.0076,0.0134,1.0111,-0.3113,-0.4546,0.1576,50.82,216.73,10.462,0.0
T001,N1,76200,-0.0011,-0.0044,1.0013,0.1744,-0.1105,0.2454,50.74,216.67,10.482,0.0
T001,N1,76300,0.0079,-0.0056,0.9929,0.176,0.2195,-0.1202,50.73,216.44,10.502,0.0
T001,N1,76400,0.0012,-0.0057,0.9987,-0.1416,-0.0697,0.0807,50.83,216.63,10.522,0.0
T001,N1,76500,0.0059,0.0081,1.0071,0.3131,0.3059,0.062,50.78,216.83,10.542,0.0
T001,N1,76600,-0.0098,-0.0011,1.0025,0.3199,0.1761,0.1833,50.87,216.82,10.562,0.0
T001,N1,76700,-0.0103,-0.007,0.992,-0.0188,-0.0092,-0.0508,50.82,216.65,10.582,0.0
T001,N1,76800,0.001,0.0093,1.0067,0.0221,0.1897,0.3625,50.71,216.67,10.602,0.0
T001,N1,76900,-0.0043,0.0042,1.0038,0.0551,-0.4087,0.1648,50.76,217.03,10.622,0.0
T001,N1,77000,-0.0022,0.0012,1.0009,-0.2112,-0.1691,0.028,50.78,217.16,10.641,0.0
T001,N1,77100,0.0114,0.0104,0.9895,-0.1799,0.181,-0.1438,50.84,216.92,10.661,0.0
T001,N1,77200,0.0044,0.0051,1.0021,-0.5195,0.2701,0.2161,50.76,216.99,10.681,0.0
T001,N1,77300,0.0076,0.0027,1.0003,-0.1707,0.3196,-0.005,50.82,217.03,10.701,0.0
T001,N1,77400,0.0014,-0.0155,0.9981,-0.0091,0.0492,0.0652,50.75,217.09,10.721,0.0
T001,N1,77500,-0.0035,-0.0025,1.0021,-0.0374,0.2521,0.1339,50.81,216.72,10.741,0.0
T001,N1,77600,0.0074,-0.0009,0.9987,0.312,0.2405,-0.254,50.83,216.63,10.761,0.0
T001,N1,77700,-0.002,0.0112,0.9913,-0.0024,0.1973,-0.222,50.88,217.04,10.781,0.0
T001,N1,77800,-0.0013,0.0124,0.9886,0.4211,0.1578,-0.1917,50.81,216.62,10.801,0.0
T001,N1,77900,0.0026,-0.0008,0.9968,-0.1094,0.2014,0.0541,50.76,216.64,10.821,0.0
T001,N1,78000,-0.0011,0.0046,1.0104,-0.3179,0.0787,0.2718,50.88,216.64,10.841,0.0
T001,N1,78100,-0.0018,-0.0073,1.0154,0.1474,0.0837,0.354,50.8,216.77,10.861,0.0
T001,N1,78200,0.006,0.0115,1.0016,0.3311,-0.1853,0.0398,50.85,216.48,10.881,0.0
T001,N1,78300,0.0144,0.0079,1.0052,-0.2054,0.0058,-0.0407,50.77,216.55,10.901,0.0
T001,N1,78400,0.0046,-0.0005,1.0014,-0.1416,-0.0801,0.0685,50.81,216.67,10.921,0.0
T001,N1,78500,0.0044,-0.0034,0.9993,-0.1093,-0.2868,-0.021,50.76,216.59,10.941,0.0
T001,N1,78600,-0.0045,0.0048,1.002,-0.1114,-0.375,0.0895,50.81,216.94,10.961,0.0
T001,N1,78700,-0.0048,-0.0113,1.0013,-0.0135,-0.0457,0.0928,50.84,216.78,10.981,0.0
T001,N1,78800,0.0102,0.0101,0.9918,-0.0525,-0.0046,-0.1423,50.78,216.87,11.001,0.0
T001,N1,78900,0.002,-0.0115,1.0021,-0.3916,-0.0124,-0.0926,50.78,216.84,11.021,0.0
T001,N1,79000,0.0105,-0.0048,0.9888,-0.1537,-0.0132,-0.2121,50.83,216.73,11.041,0.0
T001,N1,79100,-0.007,0.0064,1.0045,0.2801,0.159,0.2158,50.77,216.91,11.061,0.0
T001,N1,79200,0.0025,0.0066,0.9901,-0.058,0.0576,-0.0735,50.73,216.81,11.081,0.0
T001,N1,79300,0.0069,-0.0003,1.0079,-0.0949,-0.3635,0.1066,50.83,216.71,11.101,0.0
T001,N1,79400,-0.0051,-0.0027,1.001,-0.1851,0.2918,0.0341,50.81,216.53,11.121,0.0
T001,N1,79500,0.0102,-0.0083,1.0027,-0.0644,-0.0392,-0.1396,50.81,216.84,11.141,0.0
T001,N1,79600,-0.0092,-0.0023,0.9995,0.1502,-0.0591,0.2652,50.84,216.57,11.161,0.0
T001,N1,79700,0.0088,-0.0001,1.0007,-0.1624,0.0803,0.2149,50.85,216.82,11.181,0.0
T001,N1,79800,0.0046,-0.0146,0.9968,0.1553,0.0334,0.1487,50.8,216.78,11.201,0.0
T001,N1,79900,0.0075,-0.0062,0.9951,-0.1704,0.0048,-0.3728,50.75,216.56,11.221,0.0
T001,N1,80000,0.0034,-0.0084,1.0009,0.2235,-0.0771,-0.0173,50.77,216.81,11.241,0.0
T001,N1,80100,0.003,0.0273,0.9771,-0.7519,-0.4899,-0.525,50.84,216.8,11.261,0.0
T001,N1,80200,-0.0278,0.0047,1.0347,-0.4652,0.5153,0.8028,50.81,216.81,11.285,0.0
T001,N1,80300,0.0753,-0.0512,1.0086,-0.1178,0.4863,0.1607,50.77,216.8,11.31,0.0
T001,N1,80400,-0.03,0.035,0.9722,-0.4336,1.49,-0.5716,50.76,216.67,11.334,0.0
T001,N1,80500,-0.0206,-0.0149,1.0023,0.118,0.8712,0.022,50.83,216.86,11.358,0.0
T001,N1,80600,0.0046,0.0145,1.0049,0.4596,1.3553,-0.0801,50.79,216.66,11.383,0.0
T001,N1,80700,-0.0297,0.0168,1.0013,1.3354,0.3,-0.0799,50.83,216.61,11.407,0.0
T001,N1,80800,0.0213,-0.0096,0.9703,0.3219,0.2534,-0.5939,50.84,216.85,11.432,0.0
T001,N1,80900,-0.0028,0.0249,1.0068,-1.0756,-0.1456,0.1896,50.78,216.88,11.456,0.0
T001,N1,81000,0.0005,-0.011,1.0268,0.5366,0.4109,0.6328,50.84,216.83,11.48,0.0
T001,N1,81100,-0.0161,-0.0083,1.007,0.0394,-0.304,0.2703,50.8,216.7,11.505,0.0
T001,N1,81200,-0.0233,0.0093,1.0077,0.7538,-0.3088,0.1689,50.81,216.45,11.529,0.0
T001,N1,81300,0.0116,0.0011,0.9951,0.5531,0.4022,0.1111,50.69,216.96,11.554,0.0
T001,N1,81400,-0.0161,-0.0011,0.9888,-0.0566,-0.3552,-0.3875,50.75,216.45,11.578,0.0
T001,N1,81500,0.0064,0.0067,1.0115,0.1626,0.0278,0.4999,50.76,216.84,11.602,0.0
T001,N1,81600,-0.0011,0.0102,1.0003,-0.2922,-0.2618,0.1598,50.78,217.07,11.627,0.0
T001,N1,81700,-0.0026,0.0036,0.9983,-0.1452,0.307,-0.0212,50.8,216.8,11.651,0.0
T001,N1,81800,0.0023,-0.0055,0.9972,0.2216,0.3895,-0.0587,50.8,216.83,11.676,0.0
T001,N1,81900,0.0042,0.0036,0.9877,0.2903,0.0934,-0.1522,50.81,216.84,11.7,0.0
T001,N1,82000,0.0017,-0.0032,1.0058,0.296,0.2275,-0.0186,50.76,216.81,11.724,0.0
T001,N1,82100,0.0111,0.0019,1.0006,-0.0124,-0.0264,0.0449,50.83,217.13,11.749,0.0
T001,N1,82200,0.0149,-0.0033,0.9902,0.3263,0.3143,-0.1291,50.88,216.66,11.773,0.0
T001,N1,82300,-0.0068,-0.007,0.984,-0.301,0.1975,-0.227,50.78,216.63,11.798,0.0
T001,N1,82400,-0.0025,-0.0033,1.0086,-0.0025,-0.134,0.136,50.76,216.72,11.822,0.0
T001,N1,82500,0.0028,-0.0099,1.0042,-0.202,0.056,0.2695,50.76,217.01,11.846,0.0
T001,N1,82600,0.0069,-0.0056,0.9963,0.279,-0.0344,-0.0491,50.79,216.65,11.871,0.0
T001,N1,82700,-0.0203,-0.0036,0.9932,0.0141,-0.0644,-0.238,50.77,216.82,11.895,0.0
T001,N1,82800,0.007,-0.0039,0.9928,-0.1145,-0.1807,0.1028,50.71,216.91,11.92,0.0
T001,N1,82900,-0.0057,-0.0025,1.006,-0.1771,0.1718,-0.071,50.72,216.86,11.944,0.0
T001,N1,83000,0.0043,-0.0006,0.9931,0.0928,-0.108,-0.2409,50.84,216.9,11.969,0.0
T001,N1,83100,-0.0033,-0.0078,1.0016,-0.0758,-0.4173,-0.0212,50.86,216.95,11.993,0.0
T001,N1,83200,-0.0057,0.0032,1.0061,0.0084,0.0733,0.1392,50.88,216.79,12.017,0.0
T001,N1,83300,-0.004,0.0048,0.9959,-0.1402,-0.1777,-0.0677,50.81,216.68,12.042,0.0
T001,N1,83400,-0.0049,0.009,0.9953,0.0267,-0.1752,-0.0939,50.75,216.78,12.066,0.0
T001,N1,83500,-0.0051,0.0053,1.0027,0.0296,-0.439,-0.122,50.79,216.71,12.086,0.0
T001,N1,83600,-0.002,0.0026,0.9946,0.1283,-0.0688,-0.0241,50.74,217.15,12.106,0.0
T001,N1,83700,0.0046,-0.0006,0.9993,-0.2814,-0.0603,0.1383,50.74,216.7,12.126,0.0
T001,N1,83800,-0.0001,-0.0085,0.9913,-0.3972,-0.2188,-0.2295,50.83,216.85,12.146,0.0
T001,N1,83900,-0.0106,0.0009,0.9956,0.5389,0.0493,-0.0459,50.84,216.55,12.166,0.0
T001,N1,84000,-0.003,-0.0001,1.005,0.2925,0.1822,0.1654,50.91,216.81,12.186,0.0
T001,N1,84100,-0.0013,-0.0046,1.0115,0.1132,0.2654,0.1345,50.81,216.75,12.205,0.0
T001,N1,84200,0.018,0.0033,1.0001,-0.0812,0.2608,-0.1578,50.74,216.9,12.225,0.0
T001,N1,84300,-0.0001,0.006,0.9996,0.1226,0.1231,-0.1261,50.8,216.89,12.245,0.0
T001,N1,84400,0.0081,-0.0045,0.9949,-0.1329,-0.2879,-0.0803,50.8,217.0,12.265,0.0
T001,N1,84500,0.0005,0.0085,1.0026,-0.3159,0.0012,0.2134,50.78,216.99,12.285,0.0
T001,N1,84600,-0.0011,-0.0117,1.0022,-0.1589,0.1232,0.1831,50.82,216.78,12.305,0.0
T001,N1,84700,0.015,0.0017,0.9874,0.0728,-0.0951,-0.2596,50.75,216.65,12.325,0.0
T001,N1,84800,-0.0071,-0.0012,1.0071,0.138,-0.0309,0.1757,50.82,216.66,12.345,0.0
T001,N1,84900,-0.0013,-0.002,1.0083,-0.1435,-0.0012,-0.106,50.85,216.84,12.365,0.0
T001,N1,85000,0.0093,-0.0033,0.9852,-0.1463,-0.0377,-0.1362,50.89,216.83,12.385,0.0
T001,N1,85100,0.0041,0.01,0.9958,0.3288,-0.2902,-0.1077,50.84,216.85,12.405,0.0
T001,N1,85200,-0.0009,-0.0055,0.9956,-0.0235,-0.2609,-0.1847,50.87,216.73,12.425,0.0
T001,N1,85300,0.0044,0.0013,1.0083,-0.165,0.2499,0.0964,50.79,217.02,12.445,0.0
T001,N1,85400,0.0038,-0.007,0.9973,-0.1049,0.1715,0.1088,50.79,216.58,12.465,0.0
T001,N1,85500,0.0029,-0.0081,1.0068,-0.028,0.1676,0.3138,50.87,216.73,12.485,0.0
T001,N1,85600,-0.0053,-0.0093,0.9994,0.2031,-0.1278,-0.0961,50.74,216.65,12.505,0.0
T001,N1,85700,0.0026,0.005,1.0008,-0.0286,-0.1349,-0.0125,50.78,216.79,12.525,0.0
T001,N1,85800,-0.0002,0.0031,0.9991,0.0632,0.108,0.029,50.87,217.02,12.545,0.0
T001,N1,85900,-0.0072,0.0034,0.996,-0.203,-0.2734,0.0769,50.81,216.79,12.565,0.0
T001,N1,86000,0.0105,0.0056,1.006,-0.302,-0.3568,-0.1405,50.81,216.85,12.585,0.0
T001,N1,86100,0.0012,-0.0007,0.9876,-0.1454,-0.4187,-0.1426,50.81,216.95,12.605,0.0
T001,N1,86200,0.0013,-0.006,1.004,0.1819,0.234,-0.0212,50.83,216.78,12.625,0.0
T001,N1,86300,-0.0024,0.0074,0.996,-0.2681,0.463,-0.2755,50.88,216.89,12.645,0.0
T001,N1,86400,-0.0058,0.0058,1.004,0.0257,-0.2115,-0.0412,50.87,216.88,12.665,0.0
T001,N1,86500,-0.0113,0.0006,0.9945,0.303,0.0881,-0.0691,50.83,216.67,12.685,0.0
T001,N1,86600,-0.0062,0.0064,1.0123,-0.3432,0.0171,0.3101,50.88,216.78,12.705,0.0
T001,N1,86700,0.0076,0.0033,0.9935,0.0844,-0.2739,-0.1016,50.84,216.9,12.725,0.0
T001,N1,86800,0.0033,0.0037,1.0018,0.1375,-0.101,0.0837,50.87,217.04,12.745,0.0
T001,N1,86900,-0.0251,0.0045,1.0123,0.3682,-0.4249,0.3249,50.78,217.02,12.765,0.0
T001,N1,87000,-0.0138,0.0098,0.9807,-0.374,0.2588,-0.33,50.91,217.14,12.785,0.0
T001,N1,87100,0.0044,-0.0001,0.9858,0.1892,0.1888,-0.3525,50.83,216.9,12.805,0.0
T001,N1,87200,0.0048,0.0055,0.9981,-0.048,0.313,0.0253,50.68,216.78,12.825,0.0
T001,N1,87300,0.0025,-0.0014,0.9891,0.0747,-0.3295,-0.1538,50.91,216.82,12.844,0.0
T001,N1,87400,0.004,0.0112,1.0079,-0.0423,0.0115,0.2388,50.82,216.82,12.864,0.0
T001,N1,87500,-0.0712,-0.0559,0.9711,0.031,-0.899,-0.6119,50.8,216.77,12.888,0.0
T001,N1,87600,-0.0532,-0.0033,1.0097,-0.5804,-1.1915,0.1555,50.78,216.88,12.912,0.0
T001,N1,87700,-0.0425,0.023,1.016,-0.0675,0.1268,0.3736,50.83,216.88,12.937,0.0
T001,N1,87800,-0.0142,-0.0088,0.9521,-0.4274,-0.0101,-0.9419,50.76,216.65,12.961,0.0
T001,N1,87900,-0.0089,0.0003,1.0032,-0.1646,-1.2016,0.2003,50.77,216.99,12.986,0.0
T001,N1,88000,0.0094,0.0047,0.9937,-0.5859,0.0838,-0.1766,50.78,216.56,13.01,0.0
T001,N1,88100,0.0047,0.0143,1.0039,0.3436,-0.6372,-0.1022,50.79,216.82,13.035,0.0
T001,N1,88200,0.0056,-0.0044,0.9863,0.0814,0.0351,-0.1418,50.77,217.03,13.059,0.0
T001,N1,88300,0.0126,-0.0082,1.0091,-0.6793,0.7204,0.0771,50.84,216.94,13.083,0.0
T001,N1,88400,0.0,-0.0013,0.992,0.209,0.0332,-0.1361,50.81,216.8,13.108,0.0
T001,N1,88500,-0.0053,-0.0193,1.0068,-0.1286,-0.0123,0.2225,50.82,217.17,13.132,0.0
T001,N1,88600,-0.0025,0.0033,0.996,0.0851,-0.1816,-0.2605,50.83,216.81,13.157,0.0
T001,N1,88700,0.0185,-0.0008,0.9891,0.3563,-0.0516,0.0189,50.79,216.59,13.181,0.0
T001,N1,88800,-0.0095,-0.0153,1.0114,0.1169,0.1267,0.2404,50.74,216.94,13.205,0.0
T001,N1,88900,0.0182,-0.0002,0.9859,0.4642,0.2556,-0.0765,50.89,216.61,13.23,0.0
T001,N1,89000,0.0094,-0.007,0.9959,0.0124,-0.0401,-0.0564,50.84,216.75,13.254,0.0
T001,N1,89100,0.0107,0.0056,1.0189,0.196,-0.1315,0.3744,50.87,216.96,13.279,0.0
T001,N1,89200,0.0052,0.0005,0.9922,0.0132,-0.334,-0.1166,50.85,216.8,13.303,0.0
T001,N1,89300,-0.0166,-0.0038,1.0082,0.1465,-0.1471,0.2445,50.77,216.96,13.327,0.0
T001,N1,89400,0.003,0.0027,0.9891,0.0344,0.143,-0.165,50.67,216.69,13.352,0.0
T001,N1,89500,0.0019,0.0019,1.002,0.384,0.2123,-0.0039,50.72,216.99,13.376,0.0
T001,N1,89600,0.0026,-0.0061,1.0018,0.019,0.0643,0.2854,50.81,216.61,13.401,0.0
T001,N1,89700,-0.014,-0.0044,1.0152,-0.0481,0.2523,0.3114,50.77,217.07,13.425,0.0
T001,N1,89800,-0.0085,-0.0042,0.9984,-0.0419,-0.0279,-0.0685,50.76,216.8,13.449,0.0
T001,N1,89900,0.0005,0.0123,0.9993,-0.0403,-0.0861,-0.0923,50.67,217.1,13.474,0.0
T001,N1,90000,-0.0004,0.0096,0.9981,-0.1907,-0.2818,0.1886,50.79,216.76,13.498,0.0
T001,N1,90100,0.0161,0.0025,0.9984,-0.197,0.2305,-0.0318,50.73,217.18,13.523,0.0
T001,N1,90200,-0.0114,-0.0061,1.0029,-0.3018,0.2078,0.3439,50.75,216.75,13.547,0.0
T001,N1,90300,-0.0125,-0.0135,1.0034,-0.3289,0.3641,0.0438,50.83,216.6,13.571,0.0
T001,N1,90400,0.0094,0.0015,0.9969,0.2505,0.4724,-0.026,50.73,216.88,13.596,0.0
T001,N1,90500,-0.012,-0.0028,0.9974,-0.0031,-0.2701,0.0963,50.73,217.05,13.62,0.0
T001,N1,90600,-0.013,0.0042,1.0027,0.3826,-0.0803,0.3135,50.79,216.98,13.645,0.0
T001,N1,90700,0.0108,0.008,1.0067,0.1734,-0.4481,-0.1408,50.82,217.04,13.669,0.0
T001,N1,90800,-0.0006,0.0029,0.9868,0.067,0.1765,-0.1968,50.75,217.0,13.69,0.0
T001,N1,90900,-0.0035,-0.0068,1.0037,-0.0521,0.1785,-0.0421,50.84,216.78,13.71,0.0
T001,N1,91000,0.0024,0.002,1.0041,0.1123,-0.05,0.1127,50.71,217.01,13.73,0.0
T001,N1,91100,0.01,-0.0039,1.0029,0.2682,-0.4316,0.0436,50.7,216.89,13.75,0.0
T001,N1,91200,-0.0067,-0.0039,1.005,0.3274,-0.0767,0.012,50.7,216.77,13.77,0.0
T001,N1,91300,-0.0175,0.0153,1.0047,-0.0064,0.108,0.0868,50.68,216.91,13.789,0.0
T001,N1,91400,-0.0024,0.0141,0.9938,-0.2522,0.1489,-0.044,50.78,216.86,13.809,0.0
T001,N1,91500,0.0018,0.0052,1.0071,-0.3135,0.0355,0.0669,50.72,217.08,13.829,0.0
T001,N1,91600,0.0001,0.0002,1.0107,-0.1821,0.0347,0.1826,50.7,216.8,13.849,0.0
T001,N1,91700,-0.0034,-0.0008,1.0042,0.2846,-0.2179,0.2049,50.79,216.78,13.869,0.0
T001,N1,91800,0.0183,0.0072,1.0036,0.2871,0.3552,-0.0402,50.81,216.75,13.889,0.0
T001,N1,91900,0.0004,0.0069,0.9951,-0.0747,0.0929,0.1149,50.81,217.13,13.909,0.0
T001,N1,92000,-0.0007,-0.0137,0.9933,-0.2069,-0.2566,-0.0085,50.81,216.75,13.929,0.0
T001,N1,92100,-0.0012,0.0001,1.0065,0.49,0.1829,0.2967,50.73,217.05,13.949,0.0
T001,N1,92200,0.0018,-0.0018,0.9938,-0.1436,0.3461,-0.0042,50.79,216.7,13.969,0.0
T001,N1,92300,0.0056,0.0071,0.9975,-0.0731,0.1719,0.0064,50.81,216.93,13.989,0.0
T001,N1,92400,-0.0007,0.0061,0.9947,0.1295,-0.0462,-0.0051,50.76,216.91,14.009,0.0
T001,N1,92500,0.0026,0.0094,1.0015,0.0636,0.415,0.1817,50.8,217.05,14.029,0.0
T001,N1,92600,-0.0016,0.0032,0.9986,-0.0524,-0.3085,0.0244,50.73,217.02,14.049,0.0
T001,N1,92700,-0.0083,0.0074,1.0052,-0.4072,0.1624,0.0771,50.76,216.88,14.069,0.0
T001,N1,92800,0.0004,-0.0076,0.9914,0.5202,-0.1151,-0.1194,50.81,216.79,14.089,0.0
T001,N1,92900,0.0003,-0.0058,0.9945,0.1597,0.1188,-0.064,50.86,217.12,14.109,0.0
T001,N1,93000,0.0125,0.0005,1.0003,0.0001,-0.1104,0.1525,50.84,216.8,14.129,0.0
T001,N1,93100,0.0043,0.0014,1.0008,-0.1616,-0.1461,-0.0573,50.81,216.56,14.149,0.0
T001,N1,93200,0.0021,-0.001,1.0023,-0.182,-0.1114,-0.0041,50.79,216.6,14.169,0.0
T001,N1,93300,0.0051,-0.002,0.991,0.0288,0.2456,-0.0011,50.78,216.64,14.189,0.0
T001,N1,93400,0.0016,-0.0005,0.99,-0.3061,-0.0091,-0.3341,50.7,216.96,14.209,0.0
T001,N1,93500,0.0055,0.0022,1.0149,-0.0265,-0.057,0.2093,50.73,217.22,14.229,0.0
T001,N1,93600,-0.0032,-0.0086,0.9884,0.1891,-0.3177,-0.2658,50.73,216.59,14.249,0.0
T001,N1,93700,0.002,0.0032,0.9919,-0.1573,0.0289,-0.1917,50.8,216.76,14.269,0.0
T001,N1,93800,0.0054,-0.0128,1.0087,-0.1732,0.3721,0.2359,50.82,216.91,14.289,0.0
T001,N1,93900,-0.0014,0.0053,0.9917,-0.0473,-0.5128,-0.0431,50.82,217.14,14.309,0.0
T001,N1,94000,-0.0037,0.0036,0.9949,-0.091,0.5414,-0.0088,50.84,216.78,14.329,0.0
T001,N1,94100,0.0049,0.0142,1.0055,-0.139,-0.1024,0.1376,50.78,216.99,14.349,0.0
T001,N1,94200,0.0035,0.0061,1.0017,0.0184,0.1061,0.0673,50.73,216.88,14.369,0.0
T001,N1,94300,-0.0014,0.0083,1.0038,-0.2668,0.0825,0.0096,50.78,217.29,14.389,0.0
T001,N1,94400,0.0045,-0.0069,0.9915,0.3429,0.0768,0.1208,50.75,216.92,14.409,0.0
T001,N1,94500,0.0004,0.007,1.0029,-0.0822,-0.1504,0.1349,50.81,216.96,14.428,0.0
T001,N1,94600,0.0103,0.0051,1.0013,0.0171,-0.104,0.1793,50.76,216.92,14.448,0.0
T001,N1,94700,0.0036,-0.0022,1.0004,0.1442,0.0372,-0.0277,50.77,216.85,14.468,0.0
T001,N1,94800,-0.0282,-0.0846,0.9855,-1.1945,2.1166,-0.3197,50.82,217.06,14.491,0.0
T001,N1,94900,0.0611,0.0214,1.0976,-1.245,-2.0965,1.7887,50.74,216.74,14.515,0.0
T001,N1,95000,0.0036,0.0975,1.0089,-1.1245,0.4067,0.1555,50.83,216.6,14.54,0.0
T001,N1,95100,0.0035,-0.0457,1.0382,-0.2776,-0.3639,0.8451,50.7,216.89,14.564,0.0
T001,N1,95200,-0.0136,-0.0218,1.0466,0.566,-0.7848,0.8055,50.79,217.02,14.589,0.0
T001,N1,95300,0.0336,0.0346,0.9853,-0.4746,1.717,-0.358,50.77,216.8,14.613,0.0
T001,N1,95400,0.0009,-0.001,1.0214,0.4622,-0.6492,0.6251,50.83,216.92,14.637,0.0
T001,N1,95500,0.0387,0.0091,1.0482,-1.6948,-0.8856,0.9577,50.71,216.7,14.662,0.0
T001,N1,95600,0.0226,-0.005,1.015,-0.1987,-0.0822,0.3985,50.71,217.03,14.686,0.0
T001,N1,95700,0.0349,0.0415,1.0249,0.7418,-0.6919,0.4138,50.83,216.97,14.711,0.0
T001,N1,95800,-0.0037,-0.0032,1.0085,-0.0856,-0.0917,0.044,50.77,216.88,14.735,0.0
T001,N1,95900,0.0317,0.0025,1.0092,-0.3981,0.0729,0.1349,50.78,216.9,14.759,0.0
T001,N1,96000,0.004,-0.0023,0.9922,-0.076,0.0645,-0.0788,50.75,216.66,14.784,0.0
T001,N1,96100,0.0009,0.0194,0.9979,-1.0672,-0.1786,0.0083,50.82,216.67,14.808,0.0
T001,N1,96200,-0.0021,-0.0137,1.0073,-0.2796,-0.3018,0.262,50.79,216.87,14.833,0.0
T001,N1,96300,0.016,0.0141,1.0057,0.3612,0.2448,0.1211,50.78,216.98,14.857,0.0
T001,N1,96400,0.005,0.0002,1.0052,-0.2772,-0.0425,0.2056,50.72,217.01,14.882,0.0
T001,N1,96500,0.0036,0.0022,1.005,-0.0175,-0.1328,0.2061,50.79,216.86,14.906,0.0
T001,N1,96600,0.0056,-0.0091,0.9994,-0.592,0.4581,-0.0031,50.72,217.03,14.93,0.0
T001,N1,96700,0.0124,0.0188,0.9899,-0.4527,-0.0637,-0.0845,50.74,217.13,14.955,0.0
T001,N1,96800,-0.0135,-0.0042,1.0016,0.2451,0.3832,0.0338,50.7,216.9,14.979,0.0
T001,N1,96900,0.0072,0.0039,1.0036,0.0346,0.1618,-0.1656,50.77,216.96,15.004,0.0
T001,N1,97000,0.003,-0.0046,0.9998,-0.154,0.4506,-0.048,50.83,216.9,15.028,0.0
T001,N1,97100,-0.0009,-0.0067,0.9858,-0.0511,0.2422,-0.2334,50.79,216.93,15.052,0.0
T001,N1,97200,-0.0103,0.0079,0.9985,0.0129,-0.0357,0.0526,50.75,216.96,15.077,0.0
T001,N1,97300,0.0044,-0.0075,0.9952,-0.2196,-0.0405,-0.2571,50.78,217.19,15.101,0.0
T001,N1,97400,0.007,-0.0239,1.0036,-0.4288,-0.0233,0.2075,50.79,217.08,15.126,0.0
T001,N1,97500,-0.0082,0.0111,0.9973,-0.2417,-0.3302,-0.0085,50.79,217.05,15.15,0.0
T001,N1,97600,0.0039,0.0225,0.9885,-0.0382,0.2388,-0.1524,50.79,216.84,15.174,0.0
T001,N1,97700,0.0009,-0.0032,1.0004,0.0323,-0.0901,0.2131,50.72,216.77,15.199,0.0
T001,N1,97800,-0.0009,-0.0008,0.9885,0.0682,0.1923,-0.277,50.78,216.97,15.223,0.0
T001,N1,97900,0.0058,-0.0142,1.0057,-0.2507,-0.2327,0.0291,50.7,217.08,15.248,0.0
T001,N1,98000,-0.0015,-0.0089,1.0158,0.0916,0.1019,0.4842,50.82,217.15,15.272,0.0
T001,N1,98100,-0.0022,0.0121,1.0047,-0.0612,-0.1026,0.2475,50.74,216.54,15.294,0.0
T001,N1,98200,-0.0043,0.0016,0.9983,0.1252,-0.3522,0.037,50.86,217.27,15.314,0.0
T001,N1,98300,0.0131,0.0066,0.9981,-0.1164,-0.6056,0.0244,50.68,216.97,15.334,0.0
T001,N1,98400,-0.0002,-0.0008,1.0212,-0.28,-0.0321,0.3452,50.9,217.04,15.353,0.0
T001,N1,98500,-0.0045,-0.0058,0.9927,-1.061,-0.1316,-0.3251,50.73,216.65,15.373,0.0
T001,N1,98600,-0.0031,-0.0127,0.9905,0.4648,-0.2439,-0.2303,50.75,216.86,15.393,0.0
T001,N1,98700,0.0196,-0.0014,1.0106,0.0997,-0.1001,0.1157,50.83,217.01,15.413,0.0
T001,N1,98800,-0.0238,0.004,1.0004,-0.344,-0.2708,-0.0975,50.84,216.71,15.433,0.0
T001,N1,98900,-0.0043,0.0029,0.9937,-0.063,-0.3008,-0.1301,50.8,216.44,15.453,0.0
T001,N1,99000,-0.0157,0.0096,0.9979,-0.1781,0.3834,0.2878,50.86,216.94,15.473,0.0
T001,N1,99100,-0.0018,-0.001,0.9946,0.0338,0.007,-0.2024,50.78,216.89,15.493,0.0
T001,N1,99200,0.0024,0.009,1.0013,-0.3458,-0.1754,0.0522,50.79,217.1,15.513,0.0
T001,N1,99300,-0.0053,-0.0066,0.995,0.2309,-0.1695,0.0179,50.8,216.86,15.533,0.0
T001,N1,99400,0.0059,0.0048,0.9767,-0.094,0.1503,-0.2994,50.79,216.88,15.553,0.0
T001,N1,99500,0.0071,-0.0077,0.9881,-0.2722,0.0275,-0.2183,50.72,216.99,15.573,0.0
T001,N1,99600,-0.0023,0.002,0.9864,0.1205,0.3555,-0.0722,50.81,217.05,15.593,0.0
T001,N1,99700,0.0037,0.0022,0.9941,0.1574,0.0778,0.05,50.8,216.8,15.613,0.0
T001,N1,99800,-0.0079,-0.005,1.0029,0.1146,0.3189,-0.0056,50.86,217.06,15.633,0.0
T001,N1,99900,-0.0151,0.0028,0.9963,0.1127,-0.0973,-0.0306,50.74,216.85,15.653,0.0
T001,N1,100000,0.0011,-0.0131,0.9977,-0.1067,0.047,-0.0348,50.77,216.94,15.673,0.0
T001,N1,100100,0.009,-0.0039,1.0081,-0.1489,0.2521,0.038,50.86,217.03,15.693,0.0
T001,N1,100200,0.0013,-0.0066,1.0043,0.0685,0.1501,0.1535,50.81,217.08,15.713,0.0
T001,N1,100300,-0.0112,0.0022,1.0092,-0.3448,0.4086,0.2578,50.82,217.01,15.733,0.0
T001,N1,100400,0.0081,0.005,0.9997,0.0319,-0.1235,0.0155,50.82,216.81,15.753,0.0
T001,N1,100500,-0.0038,0.0018,1.0026,0.045,0.0205,0.0991,50.81,216.69,15.773,0.0
T001,N1,100600,-0.0014,0.0062,1.014,0.1444,-0.4692,0.2645,50.88,216.94,15.793,0.0
T001,N1,100700,0.0052,-0.0086,0.9928,-0.0064,-0.0804,-0.3765,50.79,217.12,15.813,0.0
T001,N1,100800,0.01,0.0023,1.0056,-0.062,0.4137,0.183,50.74,217.03,15.833,0.0
T001,N1,100900,-0.0012,0.0097,1.0073,-0.2765,0.1175,0.0298,50.82,216.99,15.853,0.0
T001,N1,101000,-0.0032,-0.0007,0.9956,-0.0947,-0.046,-0.2421,50.76,216.95,15.873,0.0
T001,N1,101100,0.0127,-0.0057,1.0006,-0.1872,0.2394,0.1054,50.78,217.01,15.893,0.0
T001,N1,101200,-0.0056,-0.0082,0.9997,-0.1686,-0.065,0.0367,50.81,216.8,15.913,0.0
T001,N1,101300,0.0001,-0.0003,0.9924,-0.3477,-0.139,0.0127,50.75,217.06,15.933,0.0
T001,N1,101400,-0.0012,0.0011,1.0112,-0.3834,-0.1962,0.2482,50.76,217.08,15.953,0.0
T001,N1,101500,0.001,0.0083,1.0002,0.2187,-0.2445,0.1185,50.81,216.89,15.973,0.0
T001,N1,101600,-0.0079,-0.0062,0.9902,0.0326,0.173,-0.0354,50.75,217.02,15.992,0.0
T001,N1,101700,-0.0128,0.0068,1.0028,0.1082,0.1546,0.0042,50.82,216.69,16.012,0.0
T001,N1,101800,0.0003,-0.0137,1.0153,-0.1464,0.1122,0.2879,50.73,216.96,16.032,0.0
T001,N1,101900,-0.0067,0.0122,0.9928,-0.0006,-0.0687,-0.236,50.73,216.92,16.052,0.0
T001,N1,102000,-0.0083,-0.0142,1.0047,0.0921,-0.0466,0.1545,50.88,217.14,16.072,0.0
T001,N1,102100,-0.0519,-0.0457,0.9394,-0.3211,-2.9893,-1.3955,50.7,216.92,16.094,0.0
T001,N1,102200,0.0306,0.0237,1.0732,1.8402,0.3608,1.5353,50.78,217.06,16.118,0.0
T001,N1,102300,-0.0274,0.0052,0.9523,-0.164,-0.0494,-0.9219,50.87,216.86,16.143,0.0
T001,N1,102400,-0.0074,-0.0138,1.0173,0.1783,-1.1279,0.3941,50.78,216.58,16.167,0.0
T001,N1,102500,0.0235,0.0283,0.9789,-1.1047,0.0003,-0.5617,50.84,216.88,16.192,0.0
T001,N1,102600,0.0207,0.0014,0.9915,-0.2255,-0.2416,-0.1581,50.82,216.95,16.216,0.0
T001,N1,102700,-0.0168,-0.017,1.04,0.0901,1.1903,0.8125,50.79,216.95,16.24,0.0
T001,N1,102800,0.0054,-0.0002,0.9993,-0.249,-0.7002,-0.066,50.78,216.95,16.265,0.0
T001,N1,102900,0.0473,0.0282,0.9864,-0.1604,0.3116,-0.3762,50.69,216.85,16.289,0.0
T001,N1,103000,-0.0061,-0.0007,1.0027,0.3016,-0.6502,0.1133,50.79,216.87,16.314,0.0
T001,N1,103100,-0.0126,0.0062,1.0239,0.643,-0.2309,0.2642,50.81,216.75,16.338,0.0
T001,N1,103200,-0.0183,-0.0135,0.9929,-0.0132,0.1099,-0.2027,50.81,216.61,16.362,0.0
T001,N1,103300,-0.0055,0.0293,1.0104,0.35,-0.0746,0.1008,50.92,216.91,16.387,0.0
T001,N1,103400,0.0165,-0.0046,0.9978,0.302,0.0223,0.0156,50.81,216.8,16.411,0.0
T001,N1,103500,-0.0168,0.0055,1.0052,0.258,0.1134,0.146,50.83,217.08,16.436,0.0
T001,N1,103600,0.0115,-0.0014,1.0041,-0.1001,-0.068,0.0174,50.85,216.58,16.46,0.0
T001,N1,103700,0.0065,0.0113,0.9888,-0.0025,0.2411,-0.1232,50.82,216.95,16.484,0.0
T001,N1,103800,0.0062,-0.0053,0.9892,-0.1065,0.0962,-0.2124,50.79,217.22,16.509,0.0
T001,N1,103900,-0.0162,-0.0013,1.0137,0.2868,-0.0188,0.2915,50.79,216.9,16.533,0.0
T001,N1,104000,0.0142,0.0039,1.0155,0.0308,-0.0896,0.2989,50.77,216.93,16.558,0.0
T001,N1,104100,0.002,0.0085,1.0008,0.1922,0.1115,-0.0718,50.81,216.98,16.582,0.0
T001,N1,104200,-0.0029,-0.0032,0.9848,0.2054,0.1667,-0.1412,50.77,216.99,16.606,0.0
T001,N1,104300,0.0086,-0.0055,0.9956,-0.3129,0.0626,0.1081,50.81,216.84,16.631,0.0
T001,N1,104400,-0.0069,0.0025,1.0103,0.3186,0.0585,0.1685,50.73,216.75,16.655,0.0
T001,N1,104500,0.0112,-0.0113,0.998,0.2801,-0.27,0.0408,50.79,217.01,16.68,0.0
T001,N1,104600,-0.004,0.0043,0.9991,0.0791,-0.3871,0.0663,50.86,216.63,16.704,0.0
T001,N1,104700,0.0036,-0.0052,0.9989,-0.0723,-0.0922,-0.0242,50.78,217.05,16.729,0.0
T001,N1,104800,0.0127,0.0022,1.0053,-0.0285,-0.3593,0.1051,50.88,216.86,16.753,0.0
T001,N1,104900,-0.0148,0.0023,1.0164,0.0806,0.4139,0.2167,50.8,216.92,16.777,0.0
T001,N1,105000,0.011,-0.011,0.9981,-0.0566,-0.5586,-0.3961,50.79,216.84,16.802,0.0
T001,N1,105100,-0.0098,0.0129,1.0002,-0.0723,0.1102,0.1828,50.8,217.13,16.826,0.0
T001,N1,105200,-0.0061,0.0018,0.9867,-0.2125,-0.0799,-0.3824,50.77,216.95,16.851,0.0
T001,N1,105300,-0.0038,0.0068,1.0027,-0.0784,0.2033,0.0773,50.7,216.87,16.875,0.0
T001,N1,105400,-0.0066,-0.0041,1.0093,-0.3229,-0.3427,0.0991,50.84,216.88,16.898,0.0
T001,N1,105500,-0.0121,-0.0026,1.0036,0.0225,-0.0437,-0.0705,50.9,216.9,16.918,0.0
T001,N1,105600,0.0075,-0.0045,1.0027,0.0536,0.241,0.0034,50.82,217.3,16.937,0.0
T001,N1,105700,0.0112,-0.0088,0.9998,-0.1702,0.0604,-0.0309,50.82,216.74,16.957,0.0
T001,N1,105800,-0.0033,-0.0035,1.0036,0.0167,-0.1801,0.0302,50.78,217.09,16.977,0.0
T001,N1,105900,0.0077,-0.0037,1.0011,-0.0323,-0.2095,0.0313,50.85,217.03,16.997,0.0
T001,N1,106000,0.0086,-0.002,1.002,-0.1538,-0.0813,0.0141,50.79,217.17,17.017,0.0
T001,N1,106100,-0.001,0.0061,0.9885,0.0261,0.1462,-0.1029,50.81,217.01,17.037,0.0
T001,N1,106200,0.007,-0.0027,1.0102,-0.1956,-0.1731,-0.0109,50.72,216.91,17.057,0.0
T001,N1,106300,-0.0014,0.0033,1.009,0.3508,-0.0477,0.065,50.78,217.07,17.077,0.0
T001,N1,106400,0.011,-0.0012,1.0019,-0.0923,0.0851,0.1639,50.83,216.96,17.097,0.0
T001,N1,106500,-0.0054,-0.0057,1.0017,-0.1064,-0.2527,-0.1434,50.85,217.03,17.117,0.0
T001,N1,106600,0.0056,0.0001,1.0092,-0.1002,0.1233,0.0879,50.86,217.15,17.137,0.0
T001,N1,106700,0.0015,-0.0051,1.0013,0.1133,-0.0805,0.032,50.74,216.95,17.157,0.0
T001,N1,106800,-0.0014,-0.0057,0.9973,-0.1931,0.0414,-0.0137,50.75,216.87,17.177,0.0
T001,N1,106900,0.0031,-0.0015,1.0037,-0.2612,0.1373,-0.0249,50.85,216.83,17.197,0.0
T001,N1,107000,0.0018,0.0044,1.0049,0.3692,-0.3357,-0.033,50.78,217.02,17.217,0.0
T001,N1,107100,0.0144,-0.0003,1.0016,-0.1776,0.0871,-0.1314,50.86,216.81,17.237,0.0
T001,N1,107200,-0.0014,-0.0115,0.9977,0.1015,0.26,-0.0471,50.73,216.88,17.257,0.0
T001,N1,107300,-0.0023,0.007,1.0035,0.1773,0.1213,0.1286,50.81,216.81,17.277,0.0
T001,N1,107400,-0.0066,0.0114,1.011,0.0385,-0.187,-0.0049,50.82,217.04,17.297,0.0
T001,N1,107500,0.0048,-0.0058,0.998,0.3854,0.1648,-0.2148,50.85,216.86,17.317,0.0
T001,N1,107600,0.0103,-0.0019,1.0,-0.1949,-0.0881,0.0682,50.78,216.79,17.337,0.0
T001,N1,107700,0.0047,0.0021,0.9988,-0.1018,0.0121,0.0884,50.73,216.83,17.357,0.0
T001,N1,107800,-0.0019,0.0039,0.9908,0.0385,-0.1927,-0.3522,50.84,216.92,17.377,0.0
T001,N1,107900,-0.0012,-0.0067,0.9963,0.4659,0.2478,-0.0365,50.87,216.93,17.397,0.0
T001,N1,108000,-0.007,0.0024,1.0024,0.413,0.151,0.1251,50.89,217.05,17.417,0.0
T001,N1,108100,-0.0025,-0.0014,0.9925,0.3904,0.0167,-0.2239,50.82,216.99,17.437,0.0
T001,N1,108200,-0.0027,-0.0004,0.9986,-0.0098,-0.3062,0.1485,50.88,217.06,17.457,0.0
T001,N1,108300,-0.004,0.0032,0.9893,0.1105,0.093,-0.2612,50.85,217.08,17.477,0.0
T001,N1,108400,-0.0022,0.0143,0.9973,-0.0274,-0.0988,0.0167,50.9,217.12,17.497,0.0
T001,N1,108500,0.0008,0.0059,1.0059,-0.208,0.1886,0.1255,50.83,216.73,17.517,0.0
T001,N1,108600,-0.0011,-0.0152,1.0068,0.3534,0.4304,0.1677,50.75,216.85,17.537,0.0
T001,N1,108700,0.0156,0.0016,0.9917,0.0272,0.1895,-0.0551,50.83,217.11,17.557,0.0
T001,N1,108800,0.0068,-0.0079,1.0075,0.172,0.2665,0.3204,50.84,217.06,17.576,0.0
T001,N1,108900,0.0011,0.009,0.993,0.0427,-0.1472,0.0411,50.85,217.2,17.596,0.0
T001,N1,109000,-0.0079,0.0106,1.0045,-0.2436,0.2586,0.0115,50.76,216.83,17.616,0.0
T001,N1,109100,-0.0022,-0.0071,0.9913,-0.0586,-0.0058,0.0862,50.82,216.99,17.636,0.0
T001,N1,109200,-0.0099,0.0031,1.0052,-0.1462,0.1062,0.2527,50.87,217.02,17.656,0.0
T001,N1,109300,-0.0081,0.0044,0.9922,-0.0745,0.4145,-0.032,50.83,217.1,17.676,0.0
T001,N1,109400,-0.0124,-0.0594,1.0499,-0.857,-0.3953,0.9196,50.82,217.07,17.697,0.0
T001,N1,109500,0.1242,-0.1098,0.9816,-1.2511,0.0893,-0.5545,50.94,217.16,17.721,0.0
T001,N1,109600,0.066,-0.0672,1.0294,0.4233,-1.4626,0.4316,50.79,217.06,17.746,0.0
T001,N1,109700,0.0524,0.0094,1.0249,0.3169,1.0985,0.3979,50.9,217.3,17.77,0.0
T001,N1,109800,0.0714,0.077,0.9982,-0.2439,-0.6652,0.089,50.89,217.34,17.795,0.0
T001,N1,109900,-0.0252,-0.0315,1.0362,0.5807,1.0621,0.7263,50.83,216.92,17.819,0.0
T001,N1,110000,-0.0458,-0.0123,1.003,-0.8377,-1.5707,0.0017,50.84,217.08,17.843,0.0
T001,N1,110100,-0.0123,0.0051,1.0617,0.5156,0.4116,1.194,50.84,217.21,17.868,0.0
T001,N1,110200,-0.0006,-0.0039,1.0186,-0.1211,-0.3186,0.4047,50.85,217.16,17.892,0.0
T001,N1,110300,0.0044,0.0279,1.0108,-0.2578,0.538,0.143,50.81,217.0,17.917,0.0
T001,N1,110400,-0.0047,-0.0316,0.9711,-0.1905,0.1342,-0.6485,50.82,217.11,17.941,0.0
T001,N1,110500,-0.0299,0.0017,0.9792,-0.1073,-0.3836,-0.3927,50.82,216.85,17.965,0.0
T001,N1,110600,0.0176,0.0043,0.9982,0.7444,-0.2818,-0.0397,50.81,217.08,17.99,0.0
T001,N1,110700,-0.009,0.0077,0.9883,0.1624,-0.3611,-0.2944,50.81,216.87,18.014,0.0
T001,N1,110800,-0.0122,0.0095,1.0042,-0.4398,0.3075,0.2433,50.71,217.18,18.039,0.0
T001,N1,110900,-0.0043,0.0037,1.0001,0.1409,-0.3679,-0.0276,50.83,216.93,18.063,0.0
T001,N1,111000,0.0049,-0.0115,1.0181,-0.2167,-0.136,0.3179,50.79,217.14,18.087,0.0
T001,N1,111100,-0.0038,0.014,0.9996,-0.0454,0.066,0.0501,50.72,217.16,18.112,0.0
T001,N1,111200,0.0051,0.0061,1.005,-0.337,0.4667,0.2037,50.8,217.13,18.136,0.0
T001,N1,111300,-0.0065,0.0063,1.0201,0.273,-0.1352,0.3381,50.8,217.01,18.161,0.0
T001,N1,111400,0.0009,0.0039,0.9984,-0.1404,0.1796,-0.1973,50.89,217.06,18.185,0.0
T001,N1,111500,-0.0059,0.0122,0.9948,0.4144,0.0601,-0.0607,50.79,217.28,18.209,0.0
T001,N1,111600,-0.0009,0.0153,0.9989,-0.1467,-0.3091,0.3004,50.84,217.04,18.234,0.0
T001,N1,111700,0.0081,-0.0044,0.9984,0.003,-0.2845,-0.1104,50.88,217.11,18.258,0.0
T001,N1,111800,-0.0029,0.0102,0.9935,0.1627,-0.0101,-0.1775,50.77,217.04,18.283,0.0
T001,N1,111900,0.0025,0.0023,1.0121,0.1188,-0.1183,-0.0854,50.8,217.3,18.307,0.0
T001,N1,112000,0.0053,-0.009,1.0079,0.548,-0.2025,0.3563,50.89,217.16,18.331,0.0
T001,N1,112100,-0.0082,-0.0017,1.0156,-0.009,0.1345,0.3729,50.82,217.02,18.356,0.0
T001,N1,112200,0.0076,-0.0085,0.9984,0.0885,0.2019,-0.0362,50.82,217.13,18.38,0.0
T001,N1,112300,0.0027,-0.0063,0.9891,0.2165,-0.124,-0.2907,50.78,217.09,18.405,0.0
T001,N1,112400,0.0035,0.0008,1.0145,-0.1671,-0.03,0.1311,50.84,217.33,18.429,0.0
T001,N1,112500,-0.0018,0.0008,0.9891,-0.1167,0.0262,-0.0774,50.8,217.11,18.453,0.0
T001,N1,112600,-0.0087,0.005,1.0029,-0.1109,-0.0092,-0.0062,50.71,216.9,18.478,0.0
T001,N1,112700,-0.0179,-0.0047,0.9879,0.087,0.1475,-0.2989,50.78,217.16,18.501,0.0
T001,N1,112800,-0.0006,0.0037,1.0003,-0.306,0.2649,-0.0513,50.74,217.35,18.521,0.0
T001,N1,112900,-0.0011,-0.0046,0.9959,0.0654,-0.3507,-0.0645,50.81,217.24,18.541,0.0
T001,N1,113000,0.0147,0.0065,0.9943,0.0588,0.0352,-0.0823,50.76,216.89,18.561,0.0
T001,N1,113100,0.0037,-0.0134,0.9939,0.4274,0.2762,-0.1657,50.83,217.02,18.581,0.0
T001,N1,113200,0.0077,-0.0016,1.008,0.2161,0.2659,0.3189,50.8,217.05,18.601,0.0
T001,N1,113300,0.0027,-0.0036,1.0018,0.1659,0.3905,-0.0093,50.74,217.04,18.621,0.0
T001,N1,113400,-0.0193,-0.0017,0.9978,0.2817,0.1822,0.0568,50.78,217.1,18.641,0.0
T001,N1,113500,0.0126,0.0037,0.989,0.0106,0.0322,-0.1146,50.83,216.99,18.661,0.0
T001,N1,113600,0.0064,0.0005,0.9931,-0.1329,0.1469,-0.0485,50.86,216.9,18.681,0.0
T001,N1,113700,-0.0025,-0.0029,1.006,-0.2623,-0.2317,0.3028,50.76,217.17,18.701,0.0
T001,N1,113800,0.0012,0.008,1.0071,-0.1211,-0.2772,0.0625,50.75,216.86,18.721,0.0
T001,N1,113900,0.0104,0.0054,1.0105,0.1723,-0.0855,0.1042,50.9,216.9,18.741,0.0
T001,N1,114000,0.0053,-0.0014,1.0036,0.227,0.1048,-0.0201,50.8,216.85,18.761,0.0
T001,N1,114100,0.0032,0.0004,1.0094,-0.3007,0.1749,0.0047,50.79,217.13,18.781,0.0
T001,N1,114200,0.0082,-0.0029,1.0028,-0.0276,0.1957,-0.072,50.76,217.06,18.801,0.0
T001,N1,114300,0.0114,0.0076,0.999,-0.131,-0.1475,0.0271,50.81,217.18,18.821,0.0
T001,N1,114400,-0.0067,-0.0003,1.001,0.2621,0.3944,-0.115,50.88,216.92,18.841,0.0
T001,N1,114500,-0.0065,-0.0021,1.0037,0.537,-0.2,-0.0201,50.8,216.86,18.861,0.0
T001,N1,114600,-0.0032,0.0095,1.0174,0.2242,0.0933,0.4355,50.84,216.97,18.881,0.0
T001,N1,114700,0.011,-0.0002,1.0082,-0.4238,0.3495,0.2334,50.78,217.01,18.901,0.0
T001,N1,114800,0.0009,-0.0084,1.0045,-0.4279,0.2782,-0.0111,50.74,217.08,18.921,0.0
T001,N1,114900,-0.001,0.0244,1.0114,0.0703,0.0889,0.1788,50.75,216.79,18.941,0.0
T001,N1,115000,0.0062,0.0044,1.0014,-0.1813,0.2409,0.0633,50.72,217.11,18.961,0.0
T001,N1,115100,-0.002,-0.0114,0.9942,0.2309,-0.2282,-0.1729,50.79,216.9,18.981,0.0
T001,N1,115200,-0.0018,-0.0094,0.9928,0.3537,0.2964,-0.1462,50.84,216.93,19.001,0.0
T001,N1,115300,-0.0076,-0.0053,0.9998,-0.284,0.127,-0.1132,50.79,217.21,19.021,0.0
T001,N1,115400,-0.0022,0.0035,1.0072,0.1758,0.0564,0.1885,50.77,216.7,19.041,0.0
T001,N1,115500,-0.0061,0.001,0.9967,0.1664,-0.3432,0.1147,50.74,217.09,19.061,0.0
T001,N1,115600,-0.0039,-0.0092,1.0052,0.208,0.0394,0.0477,50.8,217.12,19.081,0.0
T001,N1,115700,-0.0,-0.007,0.9991,-0.2771,0.4926,0.0409,50.71,216.94,19.101,0.0
T001,N1,115800,-0.002,-0.0104,0.9963,-0.1204,-0.1038,-0.0055,50.71,217.0,19.121,0.0
T001,N1,115900,0.0053,0.0018,1.0078,-0.2834,0.2079,0.1668,50.81,217.26,19.14,0.0
T001,N1,116000,0.0084,0.0104,1.0148,0.0663,0.0057,0.3063,50.75,217.37,19.16,0.0
T001,N1,116100,0.0094,0.0026,1.0048,0.176,0.2419,-0.0096,50.75,217.22,19.18,0.0
T001,N1,116200,-0.0036,0.0012,0.9918,-0.5948,0.0387,0.0386,50.75,217.36,19.2,0.0
T001,N1,116300,-0.0012,-0.0056,0.9964,-0.1486,-0.3835,0.0728,50.79,216.98,19.22,0.0
T001,N1,116400,-0.0005,0.0007,0.9919,0.2043,-0.0099,-0.2724,50.76,216.85,19.24,0.0
T001,N1,116500,-0.0077,-0.0078,0.9972,-0.0173,0.3882,-0.1709,50.72,217.1,19.26,0.0
T001,N1,116600,-0.0003,0.0012,1.006,-0.119,0.0131,0.2333,50.72,217.23,19.28,0.0
T001,N1,116700,0.0006,0.0144,0.9981,0.0694,0.0711,0.1946,50.74,216.83,19.3,0.0
T001,N1,116800,0.0076,0.0414,1.0361,-1.2817,2.5145,0.5668,50.77,216.96,19.324,0.0
T001,N1,116900,0.0142,0.0425,0.9231,-0.0368,1.1276,-1.5618,50.75,216.98,19.349,0.0
T001,N1,117000,-0.0105,-0.0104,1.0353,-0.0158,0.8139,0.6747,50.75,217.16,19.373,0.0
T001,N1,117100,0.0429,-0.0363,1.0432,0.4589,0.3202,0.6702,50.76,217.15,19.397,0.0
T001,N1,117200,-0.0271,-0.0241,0.992,0.4086,0.5632,-0.0729,50.76,217.0,19.422,0.0
T001,N1,117300,-0.0044,-0.03,1.0053,0.1266,0.5916,0.2084,50.72,217.16,19.446,0.0
T001,N1,117400,0.0173,0.0212,0.9885,0.6458,-1.245,-0.2215,50.81,216.96,19.471,0.0
T001,N1,117500,-0.0073,0.0024,1.031,-0.0982,0.0426,0.5798,50.74,217.08,19.495,0.0
T001,N1,117600,-0.044,-0.011,1.0002,-0.7473,-0.1143,-0.1472,50.76,216.95,19.519,0.0
T001,N1,117700,-0.0121,-0.0054,0.9945,0.4195,-0.3964,-0.242,50.65,217.14,19.544,0.0
T001,N1,117800,-0.0088,0.0008,1.004,-0.1407,-0.0113,0.2569,50.75,217.05,19.568,0.0
T001,N1,117900,-0.0039,-0.0029,0.9969,0.0206,-0.4712,-0.1139,50.71,217.27,19.593,0.0
T001,N1,118000,0.0022,-0.0219,1.0014,-0.243,-0.5028,0.3153,50.72,217.16,19.617,0.0
T001,N1,118100,-0.0055,0.0113,1.0076,0.5929,0.4286,0.3172,50.89,217.13,19.642,0.0
T001,N1,118200,0.0151,-0.0097,0.9953,0.2342,0.2269,-0.1204,50.77,217.43,19.666,0.0
T001,N1,118300,-0.0081,-0.0124,1.009,-0.0321,-0.7878,0.4519,50.82,217.2,19.69,0.0
T001,N1,118400,0.0125,-0.0069,0.994,-0.1703,-0.1509,0.0195,50.81,217.1,19.715,0.0
T001,N1,118500,-0.0016,0.0016,0.9875,0.2748,0.0586,-0.3312,50.81,217.06,19.739,0.0
T001,N1,118600,-0.0206,0.0022,0.9863,-0.3315,-0.0955,-0.5353,50.75,216.96,19.764,0.0
T001,N1,118700,-0.0035,0.0006,1.0034,0.5361,0.4117,0.1245,50.85,217.13,19.788,0.0
T001,N1,118800,-0.0054,-0.0013,1.0059,-0.0504,0.3087,0.1101,50.81,217.19,19.812,0.0
T001,N1,118900,0.0019,-0.0059,1.0,0.4531,-0.1784,0.0477,50.78,216.85,19.837,0.0
T001,N1,119000,0.0032,0.0103,1.0016,0.1432,-0.044,0.0715,50.79,216.95,19.861,0.0
T001,N1,119100,0.0104,-0.0027,0.9947,0.3176,-0.18,-0.1773,50.76,217.09,19.886,0.0
T001,N1,119200,0.0038,-0.0037,0.9928,-0.255,-0.2314,-0.1637,50.78,217.02,19.91,0.0
T001,N1,119300,0.0074,0.0031,1.0044,0.1806,-0.1507,0.034,50.77,217.19,19.934,0.0
T001,N1,119400,0.0104,0.0041,1.0003,0.043,-0.1041,0.0509,50.79,217.22,19.959,0.0
T001,N1,119500,-0.0067,-0.0075,0.9984,0.153,-0.2739,-0.043,50.85,217.17,19.983,0.0
T001,N1,119600,-0.0002,-0.0052,0.9853,0.1725,0.0614,-0.4519,50.7,217.26,20.008,0.0
T001,N1,119700,-0.0087,-0.0019,0.9995,-0.1308,-0.0034,0.0168,50.83,217.11,20.032,0.0
T001,N1,119800,0.0084,0.0064,1.0037,0.0917,0.1729,-0.1014,50.74,217.19,20.056,0.0
T001,N1,119900,0.0002,0.0012,0.9955,0.2492,0.0658,0.021,50.83,217.02,20.081,0.0
T001,N1,120000,-0.0048,-0.0091,1.0078,-0.0756,-0.1703,0.0969,50.75,217.21,20.105,0.0
T001,N1,120100,0.0023,-0.0057,1.0018,0.0215,0.1903,-0.0433,50.78,217.15,20.125,0.0
T001,N1,120200,0.0011,0.0032,1.0022,-0.0569,0.0292,0.1523,50.75,216.95,20.145,0.0
T001,N1,120300,-0.0048,0.0026,1.0021,-0.0399,-0.0562,-0.0736,50.67,217.1,20.165,0.0
T001,N1,120400,-0.0012,-0.0116,1.0001,-0.0047,0.5606,-0.0347,50.85,217.12,20.185,0.0
T001,N1,120500,0.0008,-0.0037,1.001,-0.1538,-0.356,0.0824,50.71,217.15,20.205,0.0
T001,N1,120600,0.0083,0.006,1.0035,0.1375,-0.4017,-0.1122,50.76,217.16,20.225,0.0
T001,N1,120700,-0.0009,-0.0072,0.9942,0.0001,0.1208,-0.0002,50.71,216.99,20.245,0.0
T001,N1,120800,0.0002,0.002,0.9927,-0.2311,-0.0763,0.005,50.69,217.21,20.265,0.0
T001,N1,120900,-0.0022,-0.0046,0.9928,0.4226,-0.132,-0.1469,50.75,217.17,20.285,0.0
T001,N1,121000,-0.0001,-0.0047,0.9956,0.2267,-0.1617,-0.4382,50.73,216.99,20.305,0.0
T001,N1,121100,-0.0115,0.0112,1.0081,0.0391,-0.1284,0.139,50.7,216.93,20.325,0.0
T001,N1,121200,-0.0017,-0.0033,1.0026,-0.1811,0.0164,0.0013,50.75,217.02,20.345,0.0
T001,N1,121300,-0.0075,0.0116,1.0149,-0.243,0.2244,0.4057,50.68,216.89,20.365,0.0
T001,N1,121400,-0.0174,-0.002,0.99,0.5491,0.2895,0.019,50.76,217.14,20.385,0.0
T001,N1,121500,-0.0025,0.0001,1.0031,-0.1766,-0.3884,0.1362,50.74,217.29,20.405,0.0
T001,N1,121600,-0.0038,-0.0165,0.9945,-0.0988,-0.9224,-0.1959,50.62,217.34,20.425,0.0
T001,N1,121700,0.0113,-0.0242,0.9702,0.2344,-0.7585,-0.4637,50.72,216.97,20.445,0.0
T001,N1,121800,0.0287,-0.0105,1.0035,-0.0279,0.6144,-0.0699,50.76,217.25,20.465,0.0
T001,N1,121900,-0.0066,0.0055,1.026,-0.3954,0.0299,0.6652,50.69,217.15,20.485,0.0
T001,N1,122000,0.002,-0.0211,0.9879,-0.3691,0.0012,-0.3014,50.76,216.78,20.505,0.0
T001,N1,122100,-0.0059,-0.0,0.9841,-0.2688,0.0245,-0.3058,50.76,217.09,20.525,0.0
T001,N1,122200,0.0103,-0.013,1.017,-0.286,0.0038,0.2266,50.69,217.09,20.545,0.0
T001,N1,122300,0.0155,-0.0092,1.0091,0.4758,-0.2647,0.212,50.74,217.34,20.565,0.0
T001,N1,122400,-0.0112,0.0108,0.9942,-0.0092,0.0713,-0.0119,50.78,217.02,20.585,0.0
T001,N1,122500,-0.0034,-0.0054,0.9945,-0.2721,-0.0821,0.0825,50.7,217.24,20.605,0.0
T001,N1,122600,-0.003,0.0055,0.9973,0.0577,-0.2093,-0.0765,50.73,217.14,20.625,0.0
T001,N1,122700,0.0141,-0.0027,1.0097,0.1343,0.1997,0.1891,50.8,216.92,20.645,0.0
T001,N1,122800,-0.0025,0.0002,0.9977,-0.1069,-0.0488,0.0007,50.69,217.05,20.665,0.0
T001,N1,122900,-0.0024,0.0051,1.0083,0.0603,0.1833,0.3242,50.77,217.37,20.685,0.0
T001,N1,123000,0.0013,-0.0067,0.9993,-0.3352,0.0908,0.1238,50.69,217.11,20.704,0.0
T001,N1,123100,0.0009,-0.0123,0.998,0.3195,0.3101,-0.1237,50.74,217.27,20.724,0.0
T001,N1,123200,-0.0011,0.0005,0.9852,0.0231,0.1765,-0.4151,50.77,217.29,20.744,0.0
T001,N1,123300,-0.0016,0.011,1.0088,0.0392,-0.0028,0.2157,50.63,217.09,20.764,0.0
T001,N1,123400,-0.0001,-0.0079,1.0043,-0.1003,-0.0574,-0.0887,50.73,216.95,20.784,0.0
T001,N1,123500,-0.0118,0.0046,0.994,-0.1882,0.1286,-0.0221,50.77,216.95,20.804,0.0
T001,N1,123600,0.0154,-0.0119,1.003,-0.3468,0.2139,0.0986,50.75,217.34,20.824,0.0
T001,N1,123700,-0.004,-0.006,0.9898,-0.1579,0.3264,-0.3062,50.72,217.14,20.844,0.0
T001,N1,123800,0.0042,0.0062,1.0124,0.2223,-0.1879,0.2515,50.69,216.86,20.864,0.0
T001,N1,123900,0.0027,-0.0024,0.9929,-0.0316,0.186,0.095,50.78,217.24,20.884,0.0
T001,N1,124000,-0.0073,0.0156,0.9951,-0.4009,-0.3029,-0.1246,50.72,216.86,20.904,0.0
T001,N1,124100,0.049,0.0173,1.0061,-0.8906,0.0699,0.287,50.76,216.99,20.927,0.0
T001,N1,124200,-0.0062,0.0158,1.0065,-0.2459,-0.3741,0.2267,50.75,217.12,20.952,0.0
T001,N1,124300,-0.0106,0.0175,0.9965,-0.0775,1.0365,0.0124,50.71,217.49,20.976,0.0
T001,N1,124400,-0.0192,0.0125,1.0,0.0891,-0.2891,-0.094,50.79,217.24,21.0,0.0
T001,N1,124500,0.0073,-0.0058,0.9733,0.5635,0.3931,-0.4783,50.71,217.05,21.025,0.0
T001,N1,124600,0.0361,0.0296,1.0146,0.83,-0.7643,0.3794,50.8,217.1,21.049,0.0
T001,N1,124700,-0.0021,-0.0093,1.0292,1.0265,-0.1835,0.6124,50.81,217.23,21.074,0.0
T001,N1,124800,-0.0089,-0.0142,1.0231,-0.646,-0.3808,0.6978,50.8,217.31,21.098,0.0
T001,N1,124900,0.0003,0.0247,0.9812,-0.2809,1.0954,-0.6688,50.74,217.07,21.122,0.0
T001,N1,125000,0.0078,0.0319,0.9967,0.1415,-0.2674,-0.078,50.87,217.08,21.147,0.0
T001,N1,125100,-0.0027,-0.014,1.0115,-0.1045,0.0623,0.2464,50.75,216.99,21.171,0.0
T001,N1,125200,-0.0125,0.0019,0.9848,0.3783,0.0801,-0.367,50.75,217.21,21.196,0.0
T001,N1,125300,0.0134,0.0154,0.9967,0.0596,-0.5573,-0.3763,50.74,217.28,21.22,0.0
T001,N1,125400,-0.0132,0.0152,0.9968,0.4099,-0.1541,-0.1397,50.68,216.85,21.244,0.0
T001,N1,125500,-0.0166,-0.0174,0.9868,0.1092,0.1776,-0.1104,50.8,217.08,21.269,0.0
T001,N1,125600,-0.0059,-0.0043,1.005,0.3211,0.1133,0.0657,50.71,216.98,21.293,0.0
T001,N1,125700,-0.0011,0.0062,0.9944,-0.0709,-0.3828,-0.2072,50.78,217.18,21.318,0.0
T001,N1,125800,0.0014,0.0145,0.9935,-0.1126,-0.0852,-0.0445,50.8,216.96,21.342,0.0
T001,N1,125900,-0.0032,-0.0085,1.0145,-0.0929,0.2372,0.2344,50.76,216.95,21.366,0.0
T001,N1,126000,-0.0085,0.0065,0.9974,-0.2661,0.185,-0.0622,50.7,217.31,21.391,0.0
T001,N1,126100,0.0055,0.0033,0.9966,0.2091,0.1598,0.0829,50.72,217.09,21.415,0.0
T001,N1,126200,0.0119,-0.0056,1.0029,0.1344,-0.241,0.0991,50.6,217.1,21.44,0.0
T001,N1,126300,-0.0051,0.0015,0.997,-0.2371,0.2181,-0.1426,50.73,217.18,21.464,0.0
T001,N1,126400,0.0031,-0.002,1.0054,0.3698,-0.1355,-0.0827,50.77,217.26,21.489,0.0
T001,N1,126500,0.001,-0.0097,1.0071,-0.1119,0.3273,-0.0279,50.72,217.04,21.513,0.0
T001,N1,126600,0.0018,-0.0031,1.0015,-0.4408,0.1055,0.0959,50.7,217.05,21.537,0.0
T001,N1,126700,-0.0035,0.0136,1.0096,-0.0646,-0.4395,0.0447,50.71,217.05,21.562,0.0
T001,N1,126800,0.003,0.0034,0.9933,-0.1272,0.1964,-0.1779,50.78,217.28,21.586,0.0
T001,N1,126900,-0.0171,-0.0009,0.9925,0.0206,-0.1427,-0.156,50.71,217.1,21.611,0.0
T001,N1,127000,0.0039,-0.0012,1.0102,0.0582,-0.1694,0.3098,50.81,217.07,21.635,0.0
T001,N1,127100,-0.0074,0.0022,1.0025,0.1557,-0.056,0.0408,50.69,217.17,21.659,0.0
T001,N1,127200,0.0059,0.0032,1.0087,0.2388,0.1918,0.0962,50.73,217.38,21.684,0.0
T001,N1,127300,-0.003,0.0128,0.9963,0.124,-0.2217,-0.0212,50.7,217.13,21.708,0.0
T001,N1,127400,0.0082,0.0006,0.9926,0.0736,0.305,0.0377,50.82,217.07,21.729,0.0
T001,N1,127500,0.003,-0.0006,0.9849,-0.184,-0.0508,-0.3591,50.73,217.39,21.749,0.0
T001,N1,127600,-0.0169,0.0086,1.0027,0.0951,-0.1003,0.0312,50.82,217.29,21.769,0.0
T001,N1,127700,0.0114,0.0042,0.9874,-0.1313,0.4376,-0.1015,50.69,217.26,21.789,0.0
T001,N1,127800,-0.0027,0.0027,0.9945,0.2709,-0.0909,-0.1145,50.8,217.01,21.809,0.0
T001,N1,127900,0.0088,0.01,0.9995,-0.1048,-0.0693,-0.0943,50.72,217.0,21.829,0.0
T001,N1,128000,-0.0007,-0.0125,1.0093,-0.025,-0.0698,0.211,50.75,216.81,21.849,0.0
T001,N1,128100,0.0038,-0.0004,1.0033,-0.1993,0.0115,-0.006,50.65,217.23,21.869,0.0
T001,N1,128200,-0.0041,0.0003,0.9919,0.1091,0.1572,-0.3247,50.73,217.09,21.889,0.0
T001,N1,128300,0.0034,-0.0054,1.0042,0.1677,-0.2928,0.1038,50.66,216.8,21.909,0.0
T001,N1,128400,-0.0064,0.0005,0.9954,0.0727,0.0156,-0.0172,50.72,217.23,21.929,0.0
T001,N1,128500,-0.0015,-0.0065,0.9968,0.1262,0.0046,0.0624,50.63,217.01,21.949,0.0
T001,N1,128600,0.0016,0.001,0.9911,0.2601,0.0309,-0.1101,50.7,217.03,21.969,0.0
T001,N1,128700,-0.0035,0.0068,0.9941,-0.0915,0.2078,-0.0185,50.76,216.84,21.989,0.0
T001,N1,128800,-0.0003,-0.0002,0.9987,-0.0468,-0.0433,0.0445,50.73,217.14,22.009,0.0
T001,N1,128900,-0.0064,0.0024,1.0093,0.0036,0.0406,0.1292,50.64,217.15,22.029,0.0
T001,N1,129000,-0.0049,-0.0051,0.9946,0.1962,0.3849,-0.2763,50.6,217.07,22.049,0.0
T001,N1,129100,0.0079,-0.0016,0.9925,-0.3133,-0.158,-0.1926,50.72,217.03,22.069,0.0
T001,N1,129200,0.0003,-0.0082,0.9922,-0.0817,-0.0971,-0.1847,50.77,217.48,22.089,0.0
T001,N1,129300,-0.0171,-0.0039,1.0052,-0.0307,-0.1055,0.303,50.65,216.9,22.109,0.0
T001,N1,129400,-0.0057,0.002,0.993,0.2434,-0.0514,0.0073,50.8,216.97,22.129,0.0
T001,N1,129500,0.0042,-0.0021,0.996,-0.1339,0.1099,-0.1033,50.69,217.19,22.149,0.0
T001,N1,129600,0.0048,0.0209,1.0034,0.3628,0.2119,0.081,50.6,216.92,22.169,0.0
T001,N1,129700,0.0009,0.0036,1.0147,-0.2627,0.0788,0.2163,50.61,216.92,22.189,0.0
T001,N1,129800,-0.0162,-0.0153,0.9962,0.3896,0.2216,-0.0439,50.72,217.26,22.209,0.0
T001,N1,129900,-0.0034,0.0033,0.9919,-0.085,0.2503,-0.2101,50.68,217.2,22.229,0.0
T001,N1,130000,0.0044,-0.0104,0.9981,-0.1829,-0.1306,0.1165,50.75,217.18,22.249,0.0
T001,N1,130100,0.0105,-0.0019,0.9973,-0.1584,0.1749,-0.1194,50.62,217.13,22.269,0.0
T001,N1,130200,-0.0054,-0.0023,0.9936,-0.1432,0.1169,-0.0692,50.68,217.0,22.288,0.0
T001,N1,130300,0.0027,-0.0105,1.0032,-0.0229,-0.2444,0.12,50.67,217.08,22.308,0.0
T001,N1,130400,0.0021,0.0055,1.0061,-0.1282,0.4837,0.0702,50.66,217.1,22.328,0.0
T001,N1,130500,-0.0005,-0.004,0.9933,-0.3322,-0.0998,-0.0549,50.66,217.22,22.348,0.0
T001,N1,130600,0.0022,0.0038,0.9966,-0.2952,-0.0145,0.0065,50.66,217.13,22.368,0.0
T001,N1,130700,-0.008,-0.0017,1.0018,0.1104,-0.204,0.1904,50.68,216.93,22.388,0.0
T001,N1,130800,0.0014,0.0073,1.0119,0.1679,-0.2417,0.1199,50.69,217.21,22.408,0.0
T001,N1,130900,0.0036,0.0072,1.0084,0.0485,0.3282,-0.0598,50.69,216.82,22.428,0.0
T001,N1,131000,0.0128,0.0126,1.0097,0.1654,0.4794,0.1204,50.74,217.03,22.448,0.0
T001,N1,131100,0.0062,0.0022,0.9948,-0.2592,-0.0719,0.106,50.62,216.9,22.468,0.0
T001,N1,131200,-0.0015,0.0072,0.9976,-0.0102,0.1318,-0.0505,50.59,216.96,22.488,0.0
T001,N1,131300,-0.0025,-0.0143,1.011,0.528,-0.0309,0.2748,50.74,217.4,22.508,0.0
T001,N1,131400,-0.0075,0.0191,1.0598,1.5138,1.4774,1.0881,50.64,216.9,22.53,0.0
T001,N1,131500,0.0158,0.055,0.9544,-0.4104,2.3857,-0.9879,50.66,217.0,22.555,0.0
T001,N1,131600,0.0784,0.0348,1.0018,-0.4325,1.5397,-0.0795,50.64,217.21,22.579,0.0
T001,N1,131700,0.0424,-0.039,0.9957,-2.6261,-0.2433,-0.1873,50.64,217.05,22.603,0.0
T001,N1,131800,0.0402,-0.0519,1.0166,0.7842,0.394,0.0849,50.6,217.15,22.628,0.0
T001,N1,131900,0.0145,0.0477,0.9592,0.6185,0.4095,-0.6312,50.64,217.33,22.652,0.0
T001,N1,132000,0.0337,-0.0103,0.9885,-0.3539,-0.0903,-0.0388,50.7,217.21,22.677,0.0
T001,N1,132100,-0.0191,-0.0163,1.0028,-0.8942,-0.5256,0.1723,50.67,217.06,22.701,0.0
T001,N1,132200,-0.0169,0.0102,0.9873,-0.6699,-0.5451,-0.3862,50.7,217.11,22.725,0.0
T001,N1,132300,-0.0186,-0.0101,1.004,0.1072,0.6516,0.1457,50.64,217.22,22.75,0.0
T001,N1,132400,0.0016,-0.0013,1.0062,-0.0787,0.6129,0.3892,50.72,217.25,22.774,0.0
T001,N1,132500,0.0127,-0.0004,0.9884,0.3861,-0.1209,-0.2303,50.64,217.14,22.799,0.0
T001,N1,132600,0.0016,0.0041,0.9861,0.056,0.1485,-0.2369,50.57,217.17,22.823,0.0
T001,N1,132700,-0.0149,-0.0092,0.9976,0.4195,0.385,-0.0949,50.69,217.18,22.847,0.0
T001,N1,132800,-0.0094,0.0027,0.9826,0.1655,-0.6352,-0.4168,50.71,217.12,22.872,0.0
T001,N1,132900,-0.0203,-0.0025,0.9996,0.1747,-0.2361,-0.0404,50.65,217.05,22.896,0.0
T001,N1,133000,-0.0092,-0.0071,0.9964,-0.7163,0.598,-0.2632,50.74,217.25,22.921,0.0
T001,N1,133100,-0.0027,-0.0002,0.9913,-0.3958,0.1338,0.1181,50.64,217.2,22.945,0.0
T001,N1,133200,0.0101,0.0023,0.9919,-0.1507,-0.2348,-0.1095,50.72,216.85,22.969,0.0
T001,N1,133300,0.0018,0.0069,1.0078,0.1574,-0.0139,0.2609,50.77,217.03,22.994,0.0
T001,N1,133400,-0.0017,0.0012,1.001,0.479,0.1878,-0.0405,50.68,217.09,23.018,0.0
T001,N1,133500,0.0058,0.0046,1.0013,0.0656,-0.52,-0.1292,50.67,217.13,23.043,0.0
T001,N1,133600,-0.0015,0.0073,0.9995,0.1101,-0.1427,0.1207,50.68,217.35,23.067,0.0
T001,N1,133700,0.012,0.002,0.993,-0.4283,-0.0609,-0.1611,50.77,217.65,23.091,0.0
T001,N1,133800,-0.0084,-0.0052,1.0053,0.3152,-0.2433,0.1017,50.71,216.79,23.116,0.0
T001,N1,133900,-0.0042,0.0083,0.9923,0.0601,0.0215,-0.1108,50.79,217.2,23.14,0.0
T001,N1,134000,-0.0053,0.0052,0.9947,0.5093,0.1523,-0.2509,50.7,217.18,23.165,0.0
T001,N1,134100,0.0143,-0.0042,0.9997,-0.0857,-0.1048,-0.0615,50.65,217.14,23.189,0.0
T001,N1,134200,0.0002,0.0059,1.0026,0.503,-0.1288,0.0179,50.65,217.25,23.214,0.0
T001,N1,134300,0.0104,0.0049,1.0191,0.1288,-0.1705,0.1163,50.69,217.2,23.238,0.0
T001,N1,134400,0.0012,0.0151,1.006,-0.1987,-0.2375,0.189,50.58,217.12,23.262,0.0
T001,N1,134500,-0.0159,0.0102,0.9963,-0.0209,-0.3144,-0.0118,50.67,217.19,23.287,0.0
T001,N1,134600,0.0083,0.0029,1.0034,-0.0972,0.2149,0.1252,50.67,217.27,23.311,0.0
T001,N1,134700,-0.0044,0.0022,1.0031,-0.0335,0.0668,-0.0872,50.7,217.24,23.333,0.0
T001,N1,134800,0.0047,-0.0004,1.0021,0.0798,-0.2244,0.323,50.79,217.21,23.353,0.0
T001,N1,134900,-0.0106,-0.0007,1.0037,0.0393,-0.1988,-0.0809,50.7,217.09,23.373,0.0
T001,N1,135000,-0.004,0.0085,0.9964,0.1496,-0.1482,-0.1984,50.6,217.62,23.393,0.0
T001,N1,135100,-0.0041,0.0095,0.9858,-0.1481,0.0874,-0.2816,50.65,217.25,23.413,0.0
T001,N1,135200,0.0023,-0.0021,0.9903,-0.1309,-0.0429,-0.1353,50.71,217.3,23.433,0.0
T001,N1,135300,0.004,0.0109,1.0103,0.0345,-0.0443,0.2345,50.7,217.12,23.453,0.0
T001,N1,135400,0.0047,0.0057,1.0044,-0.0083,-0.2939,0.1688,50.77,217.21,23.473,0.0
T001,N1,135500,0.0012,-0.0056,0.9925,-0.344,-0.095,-0.0733,50.74,217.21,23.493,0.0
T001,N1,135600,0.004,-0.0019,0.9975,-0.0886,-0.3028,-0.0755,50.73,216.9,23.513,0.0
T001,N1,135700,-0.0172,0.0063,0.9952,0.0576,-0.1347,-0.0174,50.68,217.07,23.533,0.0
T001,N1,135800,0.0027,0.0068,0.9932,-0.2147,-0.0938,0.0533,50.74,217.06,23.553,0.0
T001,N1,135900,0.0054,-0.0054,1.0048,-0.0338,0.0369,0.0709,50.64,217.1,23.573,0.0
T001,N1,136000,0.0101,-0.0061,1.0048,-0.0059,0.0286,0.0003,50.73,217.03,23.593,0.0
T001,N1,136100,0.0079,-0.0022,0.9926,0.2832,0.2661,0.0034,50.67,217.2,23.613,0.0
T001,N1,136200,-0.0009,0.0068,1.0056,-0.1123,-0.3384,-0.192,50.61,217.39,23.633,0.0
T001,N1,136300,0.0022,-0.0107,1.0056,0.2822,-0.2193,0.1156,50.72,217.21,23.653,0.0
T001,N1,136400,0.0133,-0.0,0.99,0.0477,-0.5502,-0.07,50.76,217.0,23.673,0.0
T001,N1,136500,-0.0055,-0.002,0.9928,-0.3908,-0.1434,-0.0771,50.67,217.02,23.693,0.0
T001,N1,136600,-0.0058,-0.0105,0.9988,0.1619,-0.2038,0.1027,50.77,217.11,23.713,0.0
T001,N1,136700,0.0033,-0.0113,1.0027,0.0073,0.179,0.1071,50.61,216.96,23.733,0.0
T001,N1,136800,-0.0016,0.0077,0.9936,0.0535,0.0054,0.0633,50.63,217.21,23.753,0.0
T001,N1,136900,-0.0088,-0.0035,0.9959,-0.246,0.2395,0.0779,50.68,217.36,23.773,0.0
T001,N1,137000,0.0051,-0.002,0.9993,-0.1358,-0.031,0.0219,50.67,217.07,23.793,0.0
T001,N1,137100,-0.0031,-0.0088,1.0183,0.06,-0.1636,0.2693,50.66,217.16,23.813,0.0
T001,N1,137200,-0.0044,-0.0076,1.0173,0.1367,-0.1076,0.1639,50.69,217.08,23.833,0.0
T001,N1,137300,-0.002,-0.0104,1.0094,0.4317,-0.0179,0.1989,50.66,217.05,23.852,0.0
T001,N1,137400,-0.0005,0.0032,1.0016,0.2382,0.2164,0.0262,50.67,217.2,23.872,0.0
T001,N1,137500,-0.002,0.009,1.0021,-0.4279,0.022,0.0832,50.7,217.08,23.892,0.0
T001,N1,137600,0.0081,-0.0032,0.994,-0.2765,-0.1266,-0.1221,50.66,217.08,23.912,0.0
T001,N1,137700,0.0055,0.007,0.9965,-0.3786,-0.2391,0.1127,50.68,216.95,23.932,0.0
T001,N1,137800,0.0084,0.0071,1.0021,0.1126,-0.0602,-0.0003,50.65,217.22,23.952,0.0
T001,N1,137900,-0.0001,0.0062,0.9903,-0.2528,0.4753,-0.1536,50.62,217.37,23.972,0.0
T001,N1,138000,0.004,-0.0048,1.0011,0.0204,0.3021,-0.0555,50.72,217.33,23.992,0.0
T001,N1,138100,0.0066,-0.0006,1.0026,-0.0535,0.0993,0.1378,50.77,217.45,24.012,0.0
T001,N1,138200,-0.002,-0.0016,0.9891,0.3168,0.0329,-0.2789,50.74,217.12,24.032,0.0
T001,N1,138300,0.0112,-0.0024,1.0002,-0.3847,0.1988,0.0465,50.7,217.36,24.052,0.0
T001,N1,138400,-0.0026,-0.0063,1.0072,-0.0676,-0.017,0.1132,50.65,217.07,24.072,0.0
T001,N1,138500,0.006,0.0094,0.9994,0.1394,-0.1709,-0.0815,50.66,217.32,24.092,0.0
T001,N1,138600,0.0038,0.0019,1.0018,0.1746,-0.0395,0.0657,50.73,217.46,24.112,0.0
T001,N1,138700,0.0049,-0.0115,1.0076,-0.0614,0.8942,0.0457,50.56,217.3,24.133,0.0
T001,N1,138800,0.0033,0.0195,0.9844,-0.7055,-0.0501,-0.2315,50.66,217.48,24.157,0.0
T001,N1,138900,0.0134,-0.0203,0.9873,-1.5871,0.7159,-0.2557,50.71,217.14,24.182,0.0
T001,N1,139000,-0.0123,-0.0218,1.0162,0.5976,0.9888,0.2599,50.61,217.21,24.206,0.0
T001,N1,139100,-0.0177,-0.0152,1.0249,-0.4147,0.2111,0.6104,50.69,217.09,24.231,0.0
T001,N1,139200,-0.012,-0.0084,0.9832,-0.7482,0.0972,-0.3147,50.69,217.23,24.255,0.0
T001,N1,139300,0.0191,0.0107,1.0141,-0.5681,1.52,0.2684,50.59,217.27,24.279,0.0
T001,N1,139400,0.0089,0.007,0.9944,-0.6347,0.1081,-0.0471,50.67,217.22,24.304,0.0
T001,N1,139500,-0.005,0.0193,1.0092,-0.3644,-0.2692,0.3467,50.64,217.16,24.328,0.0
T001,N1,139600,-0.0083,0.002,0.9996,-0.147,-0.1284,-0.0506,50.7,217.16,24.353,0.0
T001,N1,139700,-0.0113,-0.0008,0.9946,-0.4189,0.4728,-0.0282,50.72,217.29,24.377,0.0
T001,N1,139800,-0.0031,-0.0132,0.9852,0.0197,-0.2431,-0.2746,50.7,217.23,24.402,0.0
T001,N1,139900,-0.0061,-0.0051,0.991,-0.0685,-0.1096,-0.1957,50.68,217.09,24.426,0.0
T001,N1,140000,0.0056,-0.0059,1.0063,0.5691,0.2986,-0.0596,50.69,216.99,24.45,0.0
T001,N1,140100,0.0004,-0.0072,0.9998,-0.3274,-0.2211,0.0397,50.62,217.18,24.475,0.0
T001,N1,140200,-0.0119,0.0109,0.9979,0.0589,-0.1059,-0.002,50.68,217.06,24.499,0.0
T001,N1,140300,0.0073,0.0042,1.0135,0.107,0.1203,0.2073,50.64,217.13,24.524,0.0
T001,N1,140400,-0.0055,-0.0065,1.0051,-0.2053,-0.1385,-0.0564,50.73,217.2,24.548,0.0
T001,N1,140500,0.0109,0.006,1.0049,0.041,-0.3264,0.1149,50.71,217.21,24.572,0.0
T001,N1,140600,0.0117,-0.0082,1.002,0.1144,-0.0897,0.1009,50.71,217.14,24.597,0.0
T001,N1,140700,-0.0031,0.004,0.9817,0.1177,-0.0524,-0.4902,50.77,217.57,24.621,0.0
T001,N1,140800,-0.0068,0.0029,0.9912,0.2815,-0.0695,-0.0557,50.67,217.05,24.646,0.0
T001,N1,140900,0.0005,0.0072,0.9971,-0.4078,-0.1002,-0.1547,50.66,217.42,24.67,0.0
T001,N1,141000,0.0008,0.0013,0.9936,-0.1704,-0.1564,0.0622,50.67,217.2,24.694,0.0
T001,N1,141100,-0.0056,0.0011,0.9932,0.2546,-0.3074,0.0781,50.6,217.14,24.719,0.0
T001,N1,141200,0.0059,-0.0026,1.0118,0.1672,0.0274,0.1442,50.61,217.32,24.743,0.0
T001,N1,141300,-0.0042,-0.0019,1.0136,0.0917,-0.1768,0.1879,50.72,217.16,24.768,0.0
T001,N1,141400,0.0104,-0.001,1.0072,0.1661,0.0163,0.309,50.62,217.11,24.792,0.0
T001,N1,141500,0.0032,-0.0046,1.007,-0.2685,-0.0255,0.1739,50.64,217.5,24.816,0.0
T001,N1,141600,0.0122,0.0056,1.0041,0.226,-0.1076,0.0918,50.68,216.9,24.841,0.0
T001,N1,141700,-0.002,-0.0073,1.0002,0.37,0.0438,0.3441,50.67,217.19,24.865,0.0
T001,N1,141800,-0.0092,-0.0027,1.0132,-0.1789,0.297,0.2712,50.73,217.25,24.89,0.0
T001,N1,141900,-0.0075,-0.001,1.0132,0.5399,0.1025,0.1965,50.69,217.45,24.914,0.0
T001,N1,142000,-0.0042,-0.0084,1.0064,-0.1556,0.1432,0.0563,50.64,217.18,24.937,0.0
T001,N1,142100,-0.0038,-0.0119,1.0019,-0.3118,0.2809,-0.1022,50.73,217.64,24.957,0.0
T001,N1,142200,-0.0055,0.0082,0.9997,-0.077,0.1224,-0.1015,50.72,217.36,24.977,0.0
T001,N1,142300,0.0074,0.0041,0.9984,-0.228,-0.1878,-0.0983,50.62,216.9,24.997,0.0
T001,N1,142400,0.0012,-0.0007,0.9923,0.2429,0.4152,-0.07,50.7,217.04,25.017,0.0
T001,N1,142500,0.0011,-0.0034,0.9977,0.0365,0.1337,-0.1714,50.66,217.29,25.037,0.0
T001,N1,142600,0.0031,0.0048,0.9995,-0.1835,0.0025,0.0857,50.66,217.09,25.057,0.0
T001,N1,142700,-0.0008,-0.0028,0.9995,0.222,-0.0823,-0.0973,50.79,217.34,25.077,0.0
T001,N1,142800,0.0003,0.0006,1.0053,0.2421,0.0263,0.0997,50.7,217.18,25.097,0.0
T001,N1,142900,-0.0126,-0.0018,0.9959,-0.2423,0.2467,0.0599,50.68,217.08,25.117,0.0
T001,N1,143000,-0.0035,0.0071,1.0034,-0.0328,-0.2883,-0.0373,50.7,217.13,25.137,0.0
T001,N1,143100,0.0019,-0.0025,1.0002,0.0552,0.1642,-0.0983,50.75,217.39,25.157,0.0
T001,N1,143200,-0.0046,0.0014,1.0014,0.0164,0.0802,0.0419,50.68,216.96,25.177,0.0
T001,N1,143300,0.0012,-0.0124,0.9942,0.0246,0.3629,-0.0481,50.69,217.41,25.197,0.0
T001,N1,143400,0.0054,0.0046,1.0076,-0.1769,-0.1719,0.1735,50.75,217.43,25.217,0.0
T001,N1,143500,0.0105,-0.0023,0.999,-0.0873,0.01,0.0925,50.64,217.22,25.237,0.0
T001,N1,143600,-0.0081,0.003,0.9994,-0.463,0.2285,0.0161,50.76,217.09,25.257,0.0
T001,N1,143700,0.0148,-0.0038,1.0065,0.0667,0.1164,0.1747,50.64,217.38,25.277,0.0
T001,N1,143800,-0.0015,0.0028,1.0095,-0.4519,-0.2483,0.1034,50.7,217.24,25.297,0.0
T001,N1,143900,-0.0097,0.0024,0.993,-0.1416,0.1357,-0.1347,50.63,217.1,25.317,0.0
T001,N1,144000,-0.0051,0.0067,0.994,-0.0637,0.1416,0.0536,50.66,217.62,25.337,0.0
T001,N1,144100,-0.0044,0.0014,0.9886,-0.284,-0.0043,-0.0839,50.78,217.2,25.357,0.0
T001,N1,144200,0.0046,-0.0055,0.997,0.0308,-0.1402,0.0662,50.76,217.12,25.377,0.0
T001,N1,144300,0.0025,0.0108,0.9983,-0.0632,0.1947,0.1087,50.76,217.38,25.397,0.0
T001,N1,144400,-0.0086,-0.0029,1.0019,-0.1934,0.0788,0.0027,50.63,217.34,25.416,0.0
T001,N1,144500,-0.0023,-0.0019,0.9981,-0.092,-0.4763,-0.1215,50.65,217.56,25.436,0.0
T001,N1,144600,-0.0137,0.001,0.9954,-0.0868,0.0452,-0.1983,50.71,217.28,25.456,0.0
T001,N1,144700,0.0028,-0.0025,1.0072,-0.0371,0.1655,0.0976,50.72,217.28,25.476,0.0
T001,N1,144800,0.0035,0.0018,0.995,-0.111,-0.3892,-0.1797,50.65,217.37,25.496,0.0
T001,N1,144900,-0.0009,0.0137,1.0039,0.1496,0.0687,0.2787,50.66,217.36,25.516,0.0
T001,N1,145000,-0.0029,0.0067,0.9919,0.2669,0.2744,-0.1217,50.64,217.37,25.536,0.0
T001,N1,145100,-0.0055,0.0001,0.9929,-0.1605,-0.0069,-0.0967,50.78,217.37,25.556,0.0
T001,N1,145200,-0.0025,-0.0083,0.9927,-0.2221,0.1021,0.0106,50.67,217.37,25.576,0.0
T001,N1,145300,0.0042,-0.0022,0.996,-0.1454,0.0955,-0.2254,50.69,217.26,25.596,0.0
T001,N1,145400,-0.0018,-0.0092,1.006,-0.1106,-0.3839,0.1172,50.7,217.45,25.616,0.0
T001,N1,145500,0.0052,0.0018,1.0085,-0.1865,-0.3293,0.2244,50.75,217.27,25.636,0.0
T001,N1,145600,-0.0154,-0.0028,0.9922,-0.015,0.3195,-0.1627,50.65,217.45,25.656,0.0
T001,N1,145700,-0.0007,-0.005,1.0015,-0.1263,0.248,0.2905,50.75,217.53,25.676,0.0
T001,N1,145800,-0.0099,-0.0026,1.0022,0.3643,0.2763,0.1473,50.64,217.22,25.696,0.0
T001,N1,145900,0.0099,-0.0048,0.9972,0.0074,-0.062,0.1327,50.76,217.68,25.716,0.0
T001,N1,146000,0.0055,0.0117,0.9932,0.0211,0.0406,-0.0443,50.62,217.21,25.736,0.0
T001,N1,146100,-0.0021,0.0234,0.9963,-0.3153,-0.1332,-0.0326,50.71,217.23,25.736,0.0
T001,N1,146200,-0.0166,-0.0087,0.9817,0.3203,-0.2765,-0.3811,50.79,217.41,25.736,0.0
T001,N1,146300,0.0037,0.0031,0.9929,0.2587,-0.0914,-0.1209,50.75,217.42,25.736,0.0
T001,N1,146400,-0.0011,0.0027,0.9865,0.1782,0.1582,-0.3087,50.73,217.36,25.736,0.0
T001,N1,146500,-0.0134,0.0003,0.9902,0.1835,0.2529,-0.0969,50.66,217.47,25.736,0.0
T001,N1,146600,-0.0061,-0.0093,0.9999,-0.1228,-0.0225,0.0253,50.68,217.39,25.736,0.0
T001,N1,146700,0.0023,0.0032,1.0038,-0.026,-0.1128,0.193,50.78,217.66,25.736,0.0
T001,N1,146800,-0.001,-0.0058,1.0035,0.1766,0.0127,0.1184,50.74,217.36,25.736,0.0
T001,N1,146900,-0.006,0.0016,1.011,0.2467,-0.0804,0.3621,50.76,217.24,25.736,0.0
T001,N1,147000,-0.005,0.0091,1.0109,-0.2294,0.3379,-0.0426,50.72,217.28,25.736,0.0
T001,N1,147100,0.0051,-0.0077,0.9885,0.0583,0.2039,-0.3841,50.71,217.45,25.736,0.0
T001,N1,147200,0.0054,0.0032,1.0012,-0.0691,0.1171,-0.125,50.76,217.44,25.736,0.0
T001,N1,147300,0.0041,-0.0072,0.9972,0.2803,0.0483,0.0984,50.74,217.4,25.736,0.0
T001,N1,147400,0.0103,-0.0076,0.9995,0.269,0.0062,-0.0241,50.72,217.24,25.736,0.0
T001,N1,147500,0.0094,-0.0007,1.0075,-0.1576,0.1659,0.0029,50.66,217.54,25.736,0.0
T001,N1,147600,0.0064,0.0011,0.9906,-0.1252,-0.2691,-0.3049,50.78,217.67,25.736,0.0
T001,N1,147700,-0.0087,0.0063,0.9907,0.0064,-0.2775,-0.3058,50.75,217.38,25.736,0.0
T001,N1,147800,-0.0006,0.0049,1.0069,0.1155,-0.2716,0.037,50.69,217.65,25.736,0.0
T001,N1,147900,-0.0052,0.0008,1.0014,0.0542,0.094,0.1936,50.79,217.52,25.736,0.0
T001,N1,148000,0.0042,0.0025,1.0038,0.4476,-0.106,0.0908,50.74,217.72,25.736,0.0
